Desktop,trials_7.thisRepN,trials_7.thisTrialN,trials_7.thisN,trials_7.thisIndex,trials_7.ran,trials_7.order,participant,mapping,date,expName,psychopyVersion,OS,frameRate,CmUnit,trials_8.thisRepN,trials_8.thisTrialN,trials_8.thisN,trials_8.thisIndex,trials_8.ran,Cm,HeightCmAsEntered,HeightCmUsed,DistCmBasedOnHeight,trials_9.thisRepN,trials_9.thisTrialN,trials_9.thisN,trials_9.thisIndex,trials_9.ran,trials_9.order,screen_scale_start_time,scale_key_pressed,X Scale,Y Scale,screen_scale_end_time,timeInTrial,eccentricity,spacePressed,BlindSpotCm,BlindSpotBasedDistCm,DistUsedCm,begin_expt_instr_resp.keys,begin_expt_instr_resp.rt,trials_2.thisRepN,trials_2.thisTrialN,trials_2.thisN,trials_2.thisIndex,trials_2.ran,Used_image_1,Used_image_2,Used_image_3,Used_image_4,Used_image_5,Used_image_6,Used_image_7,Used_image_8,Unused_image_1,Unused_image_2,memDisplayOnTimePractice,mem_image_0_practice,mem_image_1_practice,mem_image_2_practice,mem_image_3_practice,mem_image_4_practice,mem_image_5_practice,mem_image_6_practice,mem_image_7_practice,retention_interval_practice,retro_0_post_1_practice,change_or_no_practice,cue_location_practice,mem_display_to_test_array_duration_s,mem_display_to_cue_duration_s,routine_duration_s,sd_practice_resp.keys,sd_practice_resp.rt,conf_practice_resp.keys,conf_practice_resp.rt,trials.thisRepN,trials.thisTrialN,trials.thisN,trials.thisIndex,trials.ran,trials_4.thisRepN,trials_4.thisTrialN,trials_4.thisN,trials_4.thisIndex,trials_4.ran,training_trial_index,memDisplayOnTimeTraining,mem_image_0_training,mem_image_1_training,mem_image_2_training,mem_image_3_training,mem_image_4_training,mem_image_5_training,mem_image_6_training,mem_image_7_training,retro_0_post_1_training,change_or_no_training,cue_location_training,test_image_0_training,test_image_1_training,test_image_2_training,test_image_3_training,test_image_4_training,test_image_5_training,test_image_6_training,test_image_7_training,consecutive_correct_retro_short,sd_training_resp.keys,sd_training_resp.rt,conf_training_resp.keys,conf_training_resp.rt,trials_10.thisRepN,trials_10.thisTrialN,trials_10.thisN,trials_10.thisIndex,trials_10.ran,short_interval_training_finished,training_trial_index_long_this_block,correct_retro_long_this_block,retro_trials_long_this_block,long_interval_block_finished,long_block_retro_acc,reached_criterion,run_out_of_trials,reachedFinish
1,99,0,99,0,1,98,5ee25b060f0ccf35b31431af,23,2023-07-20_21h06.23.983,templeton2A_SD_practice,2020.2.10,Win32,60,,,,,,,,,,,,,,,,,,,,,,,,,,,,,,,,,,,,,,,,,,,,,,,,,,,,,,,,,,,,,,,,,,,,,,,,,,,,,,,,,,,,,,,,,,,,,,,,,,,,,,,,,,,,,,,,,,
,,,,,,,5ee25b060f0ccf35b31431af,23,2023-07-20_21h06.23.983,templeton2A_SD_practice,2020.2.10,Win32,60,1,0,0,0,0,1,,,,,,,,,,,,,,,,,,,,,,,,,,,,,,,,,,,,,,,,,,,,,,,,,,,,,,,,,,,,,,,,,,,,,,,,,,,,,,,,,,,,,,,,,,,,,,,,,,,,,,,,,,,,
,,,,,,,5ee25b060f0ccf35b31431af,23,2023-07-20_21h06.23.983,templeton2A_SD_practice,2020.2.10,Win32,60,,,,,,,181,181,181,61.8369,99,0,99,0,1,98,,,,,,,,,,,,,,,,,,,,,,,,,,,,,,,,,,,,,,,,,,,,,,,,,,,,,,,,,,,,,,,,,,,,,,,,,,,,,,,,,,,,,,,,,,,,,,,,,,
,,,,,,,5ee25b060f0ccf35b31431af,23,2023-07-20_21h06.23.983,templeton2A_SD_practice,2020.2.10,Win32,60,,,,,,,,,,,,,,,,,93.5782,,,,,,,,,,,,,,,,,,,,,,,,,,,,,,,,,,,,,,,,,,,,,,,,,,,,,,,,,,,,,,,,,,,,,,,,,,,,,,,,,,,,,,,,,,,,,,,,,
,,,,,,,5ee25b060f0ccf35b31431af,23,2023-07-20_21h06.23.983,templeton2A_SD_practice,2020.2.10,Win32,60,,,,,,,,,,,,,,,,,,2,,,,,,,,,,,,,,,,,,,,,,,,,,,,,,,,,,,,,,,,,,,,,,,,,,,,,,,,,,,,,,,,,,,,,,,,,,,,,,,,,,,,,,,,,,,,,,,,
,,,,,,,5ee25b060f0ccf35b31431af,23,2023-07-20_21h06.23.983,templeton2A_SD_practice,2020.2.10,Win32,60,,,,,,,,,,,,,,,,,,2,,,,,,,,,,,,,,,,,,,,,,,,,,,,,,,,,,,,,,,,,,,,,,,,,,,,,,,,,,,,,,,,,,,,,,,,,,,,,,,,,,,,,,,,,,,,,,,,
,,,,,,,5ee25b060f0ccf35b31431af,23,2023-07-20_21h06.23.983,templeton2A_SD_practice,2020.2.10,Win32,60,,,,,,,,,,,,,,,,,,2,,,,,,,,,,,,,,,,,,,,,,,,,,,,,,,,,,,,,,,,,,,,,,,,,,,,,,,,,,,,,,,,,,,,,,,,,,,,,,,,,,,,,,,,,,,,,,,,
,,,,,,,5ee25b060f0ccf35b31431af,23,2023-07-20_21h06.23.983,templeton2A_SD_practice,2020.2.10,Win32,60,,,,,,,,,,,,,,,,,,2,,,,,,,,,,,,,,,,,,,,,,,,,,,,,,,,,,,,,,,,,,,,,,,,,,,,,,,,,,,,,,,,,,,,,,,,,,,,,,,,,,,,,,,,,,,,,,,,
,,,,,,,5ee25b060f0ccf35b31431af,23,2023-07-20_21h06.23.983,templeton2A_SD_practice,2020.2.10,Win32,60,,,,,,,,,,,,,,,,,,2,,,,,,,,,,,,,,,,,,,,,,,,,,,,,,,,,,,,,,,,,,,,,,,,,,,,,,,,,,,,,,,,,,,,,,,,,,,,,,,,,,,,,,,,,,,,,,,,
,,,,,,,5ee25b060f0ccf35b31431af,23,2023-07-20_21h06.23.983,templeton2A_SD_practice,2020.2.10,Win32,60,,,,,,,,,,,,,,,,,,2,,,,,,,,,,,,,,,,,,,,,,,,,,,,,,,,,,,,,,,,,,,,,,,,,,,,,,,,,,,,,,,,,,,,,,,,,,,,,,,,,,,,,,,,,,,,,,,,
,,,,,,,5ee25b060f0ccf35b31431af,23,2023-07-20_21h06.23.983,templeton2A_SD_practice,2020.2.10,Win32,60,,,,,,,,,,,,,,,,,,2,,,,,,,,,,,,,,,,,,,,,,,,,,,,,,,,,,,,,,,,,,,,,,,,,,,,,,,,,,,,,,,,,,,,,,,,,,,,,,,,,,,,,,,,,,,,,,,,
,,,,,,,5ee25b060f0ccf35b31431af,23,2023-07-20_21h06.23.983,templeton2A_SD_practice,2020.2.10,Win32,60,,,,,,,,,,,,,,,,,,2,,,,,,,,,,,,,,,,,,,,,,,,,,,,,,,,,,,,,,,,,,,,,,,,,,,,,,,,,,,,,,,,,,,,,,,,,,,,,,,,,,,,,,,,,,,,,,,,
,,,,,,,5ee25b060f0ccf35b31431af,23,2023-07-20_21h06.23.983,templeton2A_SD_practice,2020.2.10,Win32,60,,,,,,,,,,,,,,,,,,2,,,,,,,,,,,,,,,,,,,,,,,,,,,,,,,,,,,,,,,,,,,,,,,,,,,,,,,,,,,,,,,,,,,,,,,,,,,,,,,,,,,,,,,,,,,,,,,,
,,,,,,,5ee25b060f0ccf35b31431af,23,2023-07-20_21h06.23.983,templeton2A_SD_practice,2020.2.10,Win32,60,,,,,,,,,,,,,,,,,,2,,,,,,,,,,,,,,,,,,,,,,,,,,,,,,,,,,,,,,,,,,,,,,,,,,,,,,,,,,,,,,,,,,,,,,,,,,,,,,,,,,,,,,,,,,,,,,,,
,,,,,,,5ee25b060f0ccf35b31431af,23,2023-07-20_21h06.23.983,templeton2A_SD_practice,2020.2.10,Win32,60,,,,,,,,,,,,,,,,,,2,,,,,,,,,,,,,,,,,,,,,,,,,,,,,,,,,,,,,,,,,,,,,,,,,,,,,,,,,,,,,,,,,,,,,,,,,,,,,,,,,,,,,,,,,,,,,,,,
,,,,,,,5ee25b060f0ccf35b31431af,23,2023-07-20_21h06.23.983,templeton2A_SD_practice,2020.2.10,Win32,60,,,,,,,,,,,,,,,,,,2,,,,,,,,,,,,,,,,,,,,,,,,,,,,,,,,,,,,,,,,,,,,,,,,,,,,,,,,,,,,,,,,,,,,,,,,,,,,,,,,,,,,,,,,,,,,,,,,
,,,,,,,5ee25b060f0ccf35b31431af,23,2023-07-20_21h06.23.983,templeton2A_SD_practice,2020.2.10,Win32,60,,,,,,,,,,,,,,,,,,2,,,,,,,,,,,,,,,,,,,,,,,,,,,,,,,,,,,,,,,,,,,,,,,,,,,,,,,,,,,,,,,,,,,,,,,,,,,,,,,,,,,,,,,,,,,,,,,,
,,,,,,,5ee25b060f0ccf35b31431af,23,2023-07-20_21h06.23.983,templeton2A_SD_practice,2020.2.10,Win32,60,,,,,,,,,,,,,,,,,,2,,,,,,,,,,,,,,,,,,,,,,,,,,,,,,,,,,,,,,,,,,,,,,,,,,,,,,,,,,,,,,,,,,,,,,,,,,,,,,,,,,,,,,,,,,,,,,,,
,,,,,,,5ee25b060f0ccf35b31431af,23,2023-07-20_21h06.23.983,templeton2A_SD_practice,2020.2.10,Win32,60,,,,,,,,,,,,,,,,,,2,,,,,,,,,,,,,,,,,,,,,,,,,,,,,,,,,,,,,,,,,,,,,,,,,,,,,,,,,,,,,,,,,,,,,,,,,,,,,,,,,,,,,,,,,,,,,,,,
,,,,,,,5ee25b060f0ccf35b31431af,23,2023-07-20_21h06.23.983,templeton2A_SD_practice,2020.2.10,Win32,60,,,,,,,,,,,,,,,,,,2,,,,,,,,,,,,,,,,,,,,,,,,,,,,,,,,,,,,,,,,,,,,,,,,,,,,,,,,,,,,,,,,,,,,,,,,,,,,,,,,,,,,,,,,,,,,,,,,
,,,,,,,5ee25b060f0ccf35b31431af,23,2023-07-20_21h06.23.983,templeton2A_SD_practice,2020.2.10,Win32,60,,,,,,,,,,,,,,,,,,2,,,,,,,,,,,,,,,,,,,,,,,,,,,,,,,,,,,,,,,,,,,,,,,,,,,,,,,,,,,,,,,,,,,,,,,,,,,,,,,,,,,,,,,,,,,,,,,,
,,,,,,,5ee25b060f0ccf35b31431af,23,2023-07-20_21h06.23.983,templeton2A_SD_practice,2020.2.10,Win32,60,,,,,,,,,,,,,,,,,,2,,,,,,,,,,,,,,,,,,,,,,,,,,,,,,,,,,,,,,,,,,,,,,,,,,,,,,,,,,,,,,,,,,,,,,,,,,,,,,,,,,,,,,,,,,,,,,,,
,,,,,,,5ee25b060f0ccf35b31431af,23,2023-07-20_21h06.23.983,templeton2A_SD_practice,2020.2.10,Win32,60,,,,,,,,,,,,,,,,,,2,,,,,,,,,,,,,,,,,,,,,,,,,,,,,,,,,,,,,,,,,,,,,,,,,,,,,,,,,,,,,,,,,,,,,,,,,,,,,,,,,,,,,,,,,,,,,,,,
,,,,,,,5ee25b060f0ccf35b31431af,23,2023-07-20_21h06.23.983,templeton2A_SD_practice,2020.2.10,Win32,60,,,,,,,,,,,,,,,,,,2,,,,,,,,,,,,,,,,,,,,,,,,,,,,,,,,,,,,,,,,,,,,,,,,,,,,,,,,,,,,,,,,,,,,,,,,,,,,,,,,,,,,,,,,,,,,,,,,
,,,,,,,5ee25b060f0ccf35b31431af,23,2023-07-20_21h06.23.983,templeton2A_SD_practice,2020.2.10,Win32,60,,,,,,,,,,,,,,,,,,2,,,,,,,,,,,,,,,,,,,,,,,,,,,,,,,,,,,,,,,,,,,,,,,,,,,,,,,,,,,,,,,,,,,,,,,,,,,,,,,,,,,,,,,,,,,,,,,,
,,,,,,,5ee25b060f0ccf35b31431af,23,2023-07-20_21h06.23.983,templeton2A_SD_practice,2020.2.10,Win32,60,,,,,,,,,,,,,,,,,,2,,,,,,,,,,,,,,,,,,,,,,,,,,,,,,,,,,,,,,,,,,,,,,,,,,,,,,,,,,,,,,,,,,,,,,,,,,,,,,,,,,,,,,,,,,,,,,,,
,,,,,,,5ee25b060f0ccf35b31431af,23,2023-07-20_21h06.23.983,templeton2A_SD_practice,2020.2.10,Win32,60,,,,,,,,,,,,,,,,,,2,,,,,,,,,,,,,,,,,,,,,,,,,,,,,,,,,,,,,,,,,,,,,,,,,,,,,,,,,,,,,,,,,,,,,,,,,,,,,,,,,,,,,,,,,,,,,,,,
,,,,,,,5ee25b060f0ccf35b31431af,23,2023-07-20_21h06.23.983,templeton2A_SD_practice,2020.2.10,Win32,60,,,,,,,,,,,,,,,,,,2,,,,,,,,,,,,,,,,,,,,,,,,,,,,,,,,,,,,,,,,,,,,,,,,,,,,,,,,,,,,,,,,,,,,,,,,,,,,,,,,,,,,,,,,,,,,,,,,
,,,,,,,5ee25b060f0ccf35b31431af,23,2023-07-20_21h06.23.983,templeton2A_SD_practice,2020.2.10,Win32,60,,,,,,,,,,,,,,,,,,2,,,,,,,,,,,,,,,,,,,,,,,,,,,,,,,,,,,,,,,,,,,,,,,,,,,,,,,,,,,,,,,,,,,,,,,,,,,,,,,,,,,,,,,,,,,,,,,,
,,,,,,,5ee25b060f0ccf35b31431af,23,2023-07-20_21h06.23.983,templeton2A_SD_practice,2020.2.10,Win32,60,,,,,,,,,,,,,,,,,,2,,,,,,,,,,,,,,,,,,,,,,,,,,,,,,,,,,,,,,,,,,,,,,,,,,,,,,,,,,,,,,,,,,,,,,,,,,,,,,,,,,,,,,,,,,,,,,,,
,,,,,,,5ee25b060f0ccf35b31431af,23,2023-07-20_21h06.23.983,templeton2A_SD_practice,2020.2.10,Win32,60,,,,,,,,,,,,,,,,,,2,,,,,,,,,,,,,,,,,,,,,,,,,,,,,,,,,,,,,,,,,,,,,,,,,,,,,,,,,,,,,,,,,,,,,,,,,,,,,,,,,,,,,,,,,,,,,,,,
,,,,,,,5ee25b060f0ccf35b31431af,23,2023-07-20_21h06.23.983,templeton2A_SD_practice,2020.2.10,Win32,60,,,,,,,,,,,,,,,,,,2,,,,,,,,,,,,,,,,,,,,,,,,,,,,,,,,,,,,,,,,,,,,,,,,,,,,,,,,,,,,,,,,,,,,,,,,,,,,,,,,,,,,,,,,,,,,,,,,
,,,,,,,5ee25b060f0ccf35b31431af,23,2023-07-20_21h06.23.983,templeton2A_SD_practice,2020.2.10,Win32,60,,,,,,,,,,,,,,,,,,2,,,,,,,,,,,,,,,,,,,,,,,,,,,,,,,,,,,,,,,,,,,,,,,,,,,,,,,,,,,,,,,,,,,,,,,,,,,,,,,,,,,,,,,,,,,,,,,,
,,,,,,,5ee25b060f0ccf35b31431af,23,2023-07-20_21h06.23.983,templeton2A_SD_practice,2020.2.10,Win32,60,,,,,,,,,,,,,,,,,,2,,,,,,,,,,,,,,,,,,,,,,,,,,,,,,,,,,,,,,,,,,,,,,,,,,,,,,,,,,,,,,,,,,,,,,,,,,,,,,,,,,,,,,,,,,,,,,,,
,,,,,,,5ee25b060f0ccf35b31431af,23,2023-07-20_21h06.23.983,templeton2A_SD_practice,2020.2.10,Win32,60,,,,,,,,,,,,,,,,,,2,,,,,,,,,,,,,,,,,,,,,,,,,,,,,,,,,,,,,,,,,,,,,,,,,,,,,,,,,,,,,,,,,,,,,,,,,,,,,,,,,,,,,,,,,,,,,,,,
,,,,,,,5ee25b060f0ccf35b31431af,23,2023-07-20_21h06.23.983,templeton2A_SD_practice,2020.2.10,Win32,60,,,,,,,,,,,,,,,,,,2,,,,,,,,,,,,,,,,,,,,,,,,,,,,,,,,,,,,,,,,,,,,,,,,,,,,,,,,,,,,,,,,,,,,,,,,,,,,,,,,,,,,,,,,,,,,,,,,
,,,,,,,5ee25b060f0ccf35b31431af,23,2023-07-20_21h06.23.983,templeton2A_SD_practice,2020.2.10,Win32,60,,,,,,,,,,,,,,,,,,2,,,,,,,,,,,,,,,,,,,,,,,,,,,,,,,,,,,,,,,,,,,,,,,,,,,,,,,,,,,,,,,,,,,,,,,,,,,,,,,,,,,,,,,,,,,,,,,,
,,,,,,,5ee25b060f0ccf35b31431af,23,2023-07-20_21h06.23.983,templeton2A_SD_practice,2020.2.10,Win32,60,,,,,,,,,,,,,,,,,,2,,,,,,,,,,,,,,,,,,,,,,,,,,,,,,,,,,,,,,,,,,,,,,,,,,,,,,,,,,,,,,,,,,,,,,,,,,,,,,,,,,,,,,,,,,,,,,,,
,,,,,,,5ee25b060f0ccf35b31431af,23,2023-07-20_21h06.23.983,templeton2A_SD_practice,2020.2.10,Win32,60,,,,,,,,,,,,,,,,,,2,,,,,,,,,,,,,,,,,,,,,,,,,,,,,,,,,,,,,,,,,,,,,,,,,,,,,,,,,,,,,,,,,,,,,,,,,,,,,,,,,,,,,,,,,,,,,,,,
,,,,,,,5ee25b060f0ccf35b31431af,23,2023-07-20_21h06.23.983,templeton2A_SD_practice,2020.2.10,Win32,60,,,,,,,,,,,,,,,,,,2,,,,,,,,,,,,,,,,,,,,,,,,,,,,,,,,,,,,,,,,,,,,,,,,,,,,,,,,,,,,,,,,,,,,,,,,,,,,,,,,,,,,,,,,,,,,,,,,
,,,,,,,5ee25b060f0ccf35b31431af,23,2023-07-20_21h06.23.983,templeton2A_SD_practice,2020.2.10,Win32,60,,,,,,,,,,,,,,,,,,2,,,,,,,,,,,,,,,,,,,,,,,,,,,,,,,,,,,,,,,,,,,,,,,,,,,,,,,,,,,,,,,,,,,,,,,,,,,,,,,,,,,,,,,,,,,,,,,,
,,,,,,,5ee25b060f0ccf35b31431af,23,2023-07-20_21h06.23.983,templeton2A_SD_practice,2020.2.10,Win32,60,,,,,,,,,,,,,,,,,,2,,,,,,,,,,,,,,,,,,,,,,,,,,,,,,,,,,,,,,,,,,,,,,,,,,,,,,,,,,,,,,,,,,,,,,,,,,,,,,,,,,,,,,,,,,,,,,,,
,,,,,,,5ee25b060f0ccf35b31431af,23,2023-07-20_21h06.23.983,templeton2A_SD_practice,2020.2.10,Win32,60,,,,,,,,,,,,,,,,,,2,,,,,,,,,,,,,,,,,,,,,,,,,,,,,,,,,,,,,,,,,,,,,,,,,,,,,,,,,,,,,,,,,,,,,,,,,,,,,,,,,,,,,,,,,,,,,,,,
,,,,,,,5ee25b060f0ccf35b31431af,23,2023-07-20_21h06.23.983,templeton2A_SD_practice,2020.2.10,Win32,60,,,,,,,,,,,,,,,,,,2,,,,,,,,,,,,,,,,,,,,,,,,,,,,,,,,,,,,,,,,,,,,,,,,,,,,,,,,,,,,,,,,,,,,,,,,,,,,,,,,,,,,,,,,,,,,,,,,
,,,,,,,5ee25b060f0ccf35b31431af,23,2023-07-20_21h06.23.983,templeton2A_SD_practice,2020.2.10,Win32,60,,,,,,,,,,,,,,,,,,2,,,,,,,,,,,,,,,,,,,,,,,,,,,,,,,,,,,,,,,,,,,,,,,,,,,,,,,,,,,,,,,,,,,,,,,,,,,,,,,,,,,,,,,,,,,,,,,,
,,,,,,,5ee25b060f0ccf35b31431af,23,2023-07-20_21h06.23.983,templeton2A_SD_practice,2020.2.10,Win32,60,,,,,,,,,,,,,,,,,,2,,,,,,,,,,,,,,,,,,,,,,,,,,,,,,,,,,,,,,,,,,,,,,,,,,,,,,,,,,,,,,,,,,,,,,,,,,,,,,,,,,,,,,,,,,,,,,,,
,,,,,,,5ee25b060f0ccf35b31431af,23,2023-07-20_21h06.23.983,templeton2A_SD_practice,2020.2.10,Win32,60,,,,,,,,,,,,,,,,,,2,,,,,,,,,,,,,,,,,,,,,,,,,,,,,,,,,,,,,,,,,,,,,,,,,,,,,,,,,,,,,,,,,,,,,,,,,,,,,,,,,,,,,,,,,,,,,,,,
,,,,,,,5ee25b060f0ccf35b31431af,23,2023-07-20_21h06.23.983,templeton2A_SD_practice,2020.2.10,Win32,60,,,,,,,,,,,,,,,,,,2,,,,,,,,,,,,,,,,,,,,,,,,,,,,,,,,,,,,,,,,,,,,,,,,,,,,,,,,,,,,,,,,,,,,,,,,,,,,,,,,,,,,,,,,,,,,,,,,
,,,,,,,5ee25b060f0ccf35b31431af,23,2023-07-20_21h06.23.983,templeton2A_SD_practice,2020.2.10,Win32,60,,,,,,,,,,,,,,,,,,2,,,,,,,,,,,,,,,,,,,,,,,,,,,,,,,,,,,,,,,,,,,,,,,,,,,,,,,,,,,,,,,,,,,,,,,,,,,,,,,,,,,,,,,,,,,,,,,,
,,,,,,,5ee25b060f0ccf35b31431af,23,2023-07-20_21h06.23.983,templeton2A_SD_practice,2020.2.10,Win32,60,,,,,,,,,,,,,,,,,,2,,,,,,,,,,,,,,,,,,,,,,,,,,,,,,,,,,,,,,,,,,,,,,,,,,,,,,,,,,,,,,,,,,,,,,,,,,,,,,,,,,,,,,,,,,,,,,,,
,,,,,,,5ee25b060f0ccf35b31431af,23,2023-07-20_21h06.23.983,templeton2A_SD_practice,2020.2.10,Win32,60,,,,,,,,,,,,,,,,,,2,,,,,,,,,,,,,,,,,,,,,,,,,,,,,,,,,,,,,,,,,,,,,,,,,,,,,,,,,,,,,,,,,,,,,,,,,,,,,,,,,,,,,,,,,,,,,,,,
,,,,,,,5ee25b060f0ccf35b31431af,23,2023-07-20_21h06.23.983,templeton2A_SD_practice,2020.2.10,Win32,60,,,,,,,,,,,,,,,,,,2,,,,,,,,,,,,,,,,,,,,,,,,,,,,,,,,,,,,,,,,,,,,,,,,,,,,,,,,,,,,,,,,,,,,,,,,,,,,,,,,,,,,,,,,,,,,,,,,
,,,,,,,5ee25b060f0ccf35b31431af,23,2023-07-20_21h06.23.983,templeton2A_SD_practice,2020.2.10,Win32,60,,,,,,,,,,,,,,,,,,2,,,,,,,,,,,,,,,,,,,,,,,,,,,,,,,,,,,,,,,,,,,,,,,,,,,,,,,,,,,,,,,,,,,,,,,,,,,,,,,,,,,,,,,,,,,,,,,,
,,,,,,,5ee25b060f0ccf35b31431af,23,2023-07-20_21h06.23.983,templeton2A_SD_practice,2020.2.10,Win32,60,,,,,,,,,,,,,,,,,,2,,,,,,,,,,,,,,,,,,,,,,,,,,,,,,,,,,,,,,,,,,,,,,,,,,,,,,,,,,,,,,,,,,,,,,,,,,,,,,,,,,,,,,,,,,,,,,,,
,,,,,,,5ee25b060f0ccf35b31431af,23,2023-07-20_21h06.23.983,templeton2A_SD_practice,2020.2.10,Win32,60,,,,,,,,,,,,,,,,,,2,,,,,,,,,,,,,,,,,,,,,,,,,,,,,,,,,,,,,,,,,,,,,,,,,,,,,,,,,,,,,,,,,,,,,,,,,,,,,,,,,,,,,,,,,,,,,,,,
,,,,,,,5ee25b060f0ccf35b31431af,23,2023-07-20_21h06.23.983,templeton2A_SD_practice,2020.2.10,Win32,60,,,,,,,,,,,,,,,,,,2,,,,,,,,,,,,,,,,,,,,,,,,,,,,,,,,,,,,,,,,,,,,,,,,,,,,,,,,,,,,,,,,,,,,,,,,,,,,,,,,,,,,,,,,,,,,,,,,
,,,,,,,5ee25b060f0ccf35b31431af,23,2023-07-20_21h06.23.983,templeton2A_SD_practice,2020.2.10,Win32,60,,,,,,,,,,,,,,,,,,2,,,,,,,,,,,,,,,,,,,,,,,,,,,,,,,,,,,,,,,,,,,,,,,,,,,,,,,,,,,,,,,,,,,,,,,,,,,,,,,,,,,,,,,,,,,,,,,,
,,,,,,,5ee25b060f0ccf35b31431af,23,2023-07-20_21h06.23.983,templeton2A_SD_practice,2020.2.10,Win32,60,,,,,,,,,,,,,,,,,,2,,,,,,,,,,,,,,,,,,,,,,,,,,,,,,,,,,,,,,,,,,,,,,,,,,,,,,,,,,,,,,,,,,,,,,,,,,,,,,,,,,,,,,,,,,,,,,,,
,,,,,,,5ee25b060f0ccf35b31431af,23,2023-07-20_21h06.23.983,templeton2A_SD_practice,2020.2.10,Win32,60,,,,,,,,,,,,,,,,,,2,,,,,,,,,,,,,,,,,,,,,,,,,,,,,,,,,,,,,,,,,,,,,,,,,,,,,,,,,,,,,,,,,,,,,,,,,,,,,,,,,,,,,,,,,,,,,,,,
,,,,,,,5ee25b060f0ccf35b31431af,23,2023-07-20_21h06.23.983,templeton2A_SD_practice,2020.2.10,Win32,60,,,,,,,,,,,,,,,,,,1,,,,,,,,,,,,,,,,,,,,,,,,,,,,,,,,,,,,,,,,,,,,,,,,,,,,,,,,,,,,,,,,,,,,,,,,,,,,,,,,,,,,,,,,,,,,,,,,
,,,,,,,5ee25b060f0ccf35b31431af,23,2023-07-20_21h06.23.983,templeton2A_SD_practice,2020.2.10,Win32,60,,,,,,,,,,,,,,,,,,1,,,,,,,,,,,,,,,,,,,,,,,,,,,,,,,,,,,,,,,,,,,,,,,,,,,,,,,,,,,,,,,,,,,,,,,,,,,,,,,,,,,,,,,,,,,,,,,,
,,,,,,,5ee25b060f0ccf35b31431af,23,2023-07-20_21h06.23.983,templeton2A_SD_practice,2020.2.10,Win32,60,,,,,,,,,,,,,,,,,,1,,,,,,,,,,,,,,,,,,,,,,,,,,,,,,,,,,,,,,,,,,,,,,,,,,,,,,,,,,,,,,,,,,,,,,,,,,,,,,,,,,,,,,,,,,,,,,,,
,,,,,,,5ee25b060f0ccf35b31431af,23,2023-07-20_21h06.23.983,templeton2A_SD_practice,2020.2.10,Win32,60,,,,,,,,,,,,,,,,,,1,,,,,,,,,,,,,,,,,,,,,,,,,,,,,,,,,,,,,,,,,,,,,,,,,,,,,,,,,,,,,,,,,,,,,,,,,,,,,,,,,,,,,,,,,,,,,,,,
,,,,,,,5ee25b060f0ccf35b31431af,23,2023-07-20_21h06.23.983,templeton2A_SD_practice,2020.2.10,Win32,60,,,,,,,,,,,,,,,,,,1,,,,,,,,,,,,,,,,,,,,,,,,,,,,,,,,,,,,,,,,,,,,,,,,,,,,,,,,,,,,,,,,,,,,,,,,,,,,,,,,,,,,,,,,,,,,,,,,
,,,,,,,5ee25b060f0ccf35b31431af,23,2023-07-20_21h06.23.983,templeton2A_SD_practice,2020.2.10,Win32,60,,,,,,,,,,,,,,,,,,1,,,,,,,,,,,,,,,,,,,,,,,,,,,,,,,,,,,,,,,,,,,,,,,,,,,,,,,,,,,,,,,,,,,,,,,,,,,,,,,,,,,,,,,,,,,,,,,,
,,,,,,,5ee25b060f0ccf35b31431af,23,2023-07-20_21h06.23.983,templeton2A_SD_practice,2020.2.10,Win32,60,,,,,,,,,,,,,,,,,,1,,,,,,,,,,,,,,,,,,,,,,,,,,,,,,,,,,,,,,,,,,,,,,,,,,,,,,,,,,,,,,,,,,,,,,,,,,,,,,,,,,,,,,,,,,,,,,,,
,,,,,,,5ee25b060f0ccf35b31431af,23,2023-07-20_21h06.23.983,templeton2A_SD_practice,2020.2.10,Win32,60,,,,,,,,,,,,,,,,,,1,,,,,,,,,,,,,,,,,,,,,,,,,,,,,,,,,,,,,,,,,,,,,,,,,,,,,,,,,,,,,,,,,,,,,,,,,,,,,,,,,,,,,,,,,,,,,,,,
,,,,,,,5ee25b060f0ccf35b31431af,23,2023-07-20_21h06.23.983,templeton2A_SD_practice,2020.2.10,Win32,60,,,,,,,,,,,,,,,,,,1,,,,,,,,,,,,,,,,,,,,,,,,,,,,,,,,,,,,,,,,,,,,,,,,,,,,,,,,,,,,,,,,,,,,,,,,,,,,,,,,,,,,,,,,,,,,,,,,
,,,,,,,5ee25b060f0ccf35b31431af,23,2023-07-20_21h06.23.983,templeton2A_SD_practice,2020.2.10,Win32,60,,,,,,,,,,,,,,,,,,1,,,,,,,,,,,,,,,,,,,,,,,,,,,,,,,,,,,,,,,,,,,,,,,,,,,,,,,,,,,,,,,,,,,,,,,,,,,,,,,,,,,,,,,,,,,,,,,,
,,,,,,,5ee25b060f0ccf35b31431af,23,2023-07-20_21h06.23.983,templeton2A_SD_practice,2020.2.10,Win32,60,,,,,,,,,,,,,,,,,,1,,,,,,,,,,,,,,,,,,,,,,,,,,,,,,,,,,,,,,,,,,,,,,,,,,,,,,,,,,,,,,,,,,,,,,,,,,,,,,,,,,,,,,,,,,,,,,,,
,,,,,,,5ee25b060f0ccf35b31431af,23,2023-07-20_21h06.23.983,templeton2A_SD_practice,2020.2.10,Win32,60,,,,,,,,,,,,,,,,,,1,,,,,,,,,,,,,,,,,,,,,,,,,,,,,,,,,,,,,,,,,,,,,,,,,,,,,,,,,,,,,,,,,,,,,,,,,,,,,,,,,,,,,,,,,,,,,,,,
,,,,,,,5ee25b060f0ccf35b31431af,23,2023-07-20_21h06.23.983,templeton2A_SD_practice,2020.2.10,Win32,60,,,,,,,,,,,,,,,,,,1,,,,,,,,,,,,,,,,,,,,,,,,,,,,,,,,,,,,,,,,,,,,,,,,,,,,,,,,,,,,,,,,,,,,,,,,,,,,,,,,,,,,,,,,,,,,,,,,
,,,,,,,5ee25b060f0ccf35b31431af,23,2023-07-20_21h06.23.983,templeton2A_SD_practice,2020.2.10,Win32,60,,,,,,,,,,,,,,,,,,1,,,,,,,,,,,,,,,,,,,,,,,,,,,,,,,,,,,,,,,,,,,,,,,,,,,,,,,,,,,,,,,,,,,,,,,,,,,,,,,,,,,,,,,,,,,,,,,,
,,,,,,,5ee25b060f0ccf35b31431af,23,2023-07-20_21h06.23.983,templeton2A_SD_practice,2020.2.10,Win32,60,,,,,,,,,,,,,,,,,,4,,,,,,,,,,,,,,,,,,,,,,,,,,,,,,,,,,,,,,,,,,,,,,,,,,,,,,,,,,,,,,,,,,,,,,,,,,,,,,,,,,,,,,,,,,,,,,,,
,,,,,,,5ee25b060f0ccf35b31431af,23,2023-07-20_21h06.23.983,templeton2A_SD_practice,2020.2.10,Win32,60,,,,,,,,,,,,,,,,,,4,,,,,,,,,,,,,,,,,,,,,,,,,,,,,,,,,,,,,,,,,,,,,,,,,,,,,,,,,,,,,,,,,,,,,,,,,,,,,,,,,,,,,,,,,,,,,,,,
,,,,,,,5ee25b060f0ccf35b31431af,23,2023-07-20_21h06.23.983,templeton2A_SD_practice,2020.2.10,Win32,60,,,,,,,,,,,,,,,,,,4,,,,,,,,,,,,,,,,,,,,,,,,,,,,,,,,,,,,,,,,,,,,,,,,,,,,,,,,,,,,,,,,,,,,,,,,,,,,,,,,,,,,,,,,,,,,,,,,
,,,,,,,5ee25b060f0ccf35b31431af,23,2023-07-20_21h06.23.983,templeton2A_SD_practice,2020.2.10,Win32,60,,,,,,,,,,,,,,,,,,4,,,,,,,,,,,,,,,,,,,,,,,,,,,,,,,,,,,,,,,,,,,,,,,,,,,,,,,,,,,,,,,,,,,,,,,,,,,,,,,,,,,,,,,,,,,,,,,,
,,,,,,,5ee25b060f0ccf35b31431af,23,2023-07-20_21h06.23.983,templeton2A_SD_practice,2020.2.10,Win32,60,,,,,,,,,,,,,,,,,,4,,,,,,,,,,,,,,,,,,,,,,,,,,,,,,,,,,,,,,,,,,,,,,,,,,,,,,,,,,,,,,,,,,,,,,,,,,,,,,,,,,,,,,,,,,,,,,,,
,,,,,,,5ee25b060f0ccf35b31431af,23,2023-07-20_21h06.23.983,templeton2A_SD_practice,2020.2.10,Win32,60,,,,,,,,,,,,,,,,,,4,,,,,,,,,,,,,,,,,,,,,,,,,,,,,,,,,,,,,,,,,,,,,,,,,,,,,,,,,,,,,,,,,,,,,,,,,,,,,,,,,,,,,,,,,,,,,,,,
,,,,,,,5ee25b060f0ccf35b31431af,23,2023-07-20_21h06.23.983,templeton2A_SD_practice,2020.2.10,Win32,60,,,,,,,,,,,,,,,,,,4,,,,,,,,,,,,,,,,,,,,,,,,,,,,,,,,,,,,,,,,,,,,,,,,,,,,,,,,,,,,,,,,,,,,,,,,,,,,,,,,,,,,,,,,,,,,,,,,
,,,,,,,5ee25b060f0ccf35b31431af,23,2023-07-20_21h06.23.983,templeton2A_SD_practice,2020.2.10,Win32,60,,,,,,,,,,,,,,,,,,4,,,,,,,,,,,,,,,,,,,,,,,,,,,,,,,,,,,,,,,,,,,,,,,,,,,,,,,,,,,,,,,,,,,,,,,,,,,,,,,,,,,,,,,,,,,,,,,,
,,,,,,,5ee25b060f0ccf35b31431af,23,2023-07-20_21h06.23.983,templeton2A_SD_practice,2020.2.10,Win32,60,,,,,,,,,,,,,,,,,,4,,,,,,,,,,,,,,,,,,,,,,,,,,,,,,,,,,,,,,,,,,,,,,,,,,,,,,,,,,,,,,,,,,,,,,,,,,,,,,,,,,,,,,,,,,,,,,,,
,,,,,,,5ee25b060f0ccf35b31431af,23,2023-07-20_21h06.23.983,templeton2A_SD_practice,2020.2.10,Win32,60,,,,,,,,,,,,,,,,,,4,,,,,,,,,,,,,,,,,,,,,,,,,,,,,,,,,,,,,,,,,,,,,,,,,,,,,,,,,,,,,,,,,,,,,,,,,,,,,,,,,,,,,,,,,,,,,,,,
,,,,,,,5ee25b060f0ccf35b31431af,23,2023-07-20_21h06.23.983,templeton2A_SD_practice,2020.2.10,Win32,60,,,,,,,,,,,,,,,,,,4,,,,,,,,,,,,,,,,,,,,,,,,,,,,,,,,,,,,,,,,,,,,,,,,,,,,,,,,,,,,,,,,,,,,,,,,,,,,,,,,,,,,,,,,,,,,,,,,
,,,,,,,5ee25b060f0ccf35b31431af,23,2023-07-20_21h06.23.983,templeton2A_SD_practice,2020.2.10,Win32,60,,,,,,,,,,,,,,,,,,4,,,,,,,,,,,,,,,,,,,,,,,,,,,,,,,,,,,,,,,,,,,,,,,,,,,,,,,,,,,,,,,,,,,,,,,,,,,,,,,,,,,,,,,,,,,,,,,,
,,,,,,,5ee25b060f0ccf35b31431af,23,2023-07-20_21h06.23.983,templeton2A_SD_practice,2020.2.10,Win32,60,,,,,,,,,,,,,,,,,,4,,,,,,,,,,,,,,,,,,,,,,,,,,,,,,,,,,,,,,,,,,,,,,,,,,,,,,,,,,,,,,,,,,,,,,,,,,,,,,,,,,,,,,,,,,,,,,,,
,,,,,,,5ee25b060f0ccf35b31431af,23,2023-07-20_21h06.23.983,templeton2A_SD_practice,2020.2.10,Win32,60,,,,,,,,,,,,,,,,,,4,,,,,,,,,,,,,,,,,,,,,,,,,,,,,,,,,,,,,,,,,,,,,,,,,,,,,,,,,,,,,,,,,,,,,,,,,,,,,,,,,,,,,,,,,,,,,,,,
,,,,,,,5ee25b060f0ccf35b31431af,23,2023-07-20_21h06.23.983,templeton2A_SD_practice,2020.2.10,Win32,60,,,,,,,,,,,,,,,,,,4,,,,,,,,,,,,,,,,,,,,,,,,,,,,,,,,,,,,,,,,,,,,,,,,,,,,,,,,,,,,,,,,,,,,,,,,,,,,,,,,,,,,,,,,,,,,,,,,
,,,,,,,5ee25b060f0ccf35b31431af,23,2023-07-20_21h06.23.983,templeton2A_SD_practice,2020.2.10,Win32,60,,,,,,,,,,,,,,,,,,4,,,,,,,,,,,,,,,,,,,,,,,,,,,,,,,,,,,,,,,,,,,,,,,,,,,,,,,,,,,,,,,,,,,,,,,,,,,,,,,,,,,,,,,,,,,,,,,,
,,,,,,,5ee25b060f0ccf35b31431af,23,2023-07-20_21h06.23.983,templeton2A_SD_practice,2020.2.10,Win32,60,,,,,,,,,,,,,,,,,,4,,,,,,,,,,,,,,,,,,,,,,,,,,,,,,,,,,,,,,,,,,,,,,,,,,,,,,,,,,,,,,,,,,,,,,,,,,,,,,,,,,,,,,,,,,,,,,,,
,,,,,,,5ee25b060f0ccf35b31431af,23,2023-07-20_21h06.23.983,templeton2A_SD_practice,2020.2.10,Win32,60,,,,,,,,,,,,,,,,,,3,,,,,,,,,,,,,,,,,,,,,,,,,,,,,,,,,,,,,,,,,,,,,,,,,,,,,,,,,,,,,,,,,,,,,,,,,,,,,,,,,,,,,,,,,,,,,,,,
,,,,,,,5ee25b060f0ccf35b31431af,23,2023-07-20_21h06.23.983,templeton2A_SD_practice,2020.2.10,Win32,60,,,,,,,,,,,,,,,,,,3,,,,,,,,,,,,,,,,,,,,,,,,,,,,,,,,,,,,,,,,,,,,,,,,,,,,,,,,,,,,,,,,,,,,,,,,,,,,,,,,,,,,,,,,,,,,,,,,
,,,,,,,5ee25b060f0ccf35b31431af,23,2023-07-20_21h06.23.983,templeton2A_SD_practice,2020.2.10,Win32,60,,,,,,,,,,,,,,,,,,3,,,,,,,,,,,,,,,,,,,,,,,,,,,,,,,,,,,,,,,,,,,,,,,,,,,,,,,,,,,,,,,,,,,,,,,,,,,,,,,,,,,,,,,,,,,,,,,,
,,,,,,,5ee25b060f0ccf35b31431af,23,2023-07-20_21h06.23.983,templeton2A_SD_practice,2020.2.10,Win32,60,,,,,,,,,,,,,,,,,,3,,,,,,,,,,,,,,,,,,,,,,,,,,,,,,,,,,,,,,,,,,,,,,,,,,,,,,,,,,,,,,,,,,,,,,,,,,,,,,,,,,,,,,,,,,,,,,,,
,,,,,,,5ee25b060f0ccf35b31431af,23,2023-07-20_21h06.23.983,templeton2A_SD_practice,2020.2.10,Win32,60,,,,,,,,,,,,,,,,,,3,,,,,,,,,,,,,,,,,,,,,,,,,,,,,,,,,,,,,,,,,,,,,,,,,,,,,,,,,,,,,,,,,,,,,,,,,,,,,,,,,,,,,,,,,,,,,,,,
,,,,,,,5ee25b060f0ccf35b31431af,23,2023-07-20_21h06.23.983,templeton2A_SD_practice,2020.2.10,Win32,60,,,,,,,,,,,,,,,,,,3,,,,,,,,,,,,,,,,,,,,,,,,,,,,,,,,,,,,,,,,,,,,,,,,,,,,,,,,,,,,,,,,,,,,,,,,,,,,,,,,,,,,,,,,,,,,,,,,
,,,,,,,5ee25b060f0ccf35b31431af,23,2023-07-20_21h06.23.983,templeton2A_SD_practice,2020.2.10,Win32,60,,,,,,,,,,,,,,,,,,3,,,,,,,,,,,,,,,,,,,,,,,,,,,,,,,,,,,,,,,,,,,,,,,,,,,,,,,,,,,,,,,,,,,,,,,,,,,,,,,,,,,,,,,,,,,,,,,,
,,,,,,,5ee25b060f0ccf35b31431af,23,2023-07-20_21h06.23.983,templeton2A_SD_practice,2020.2.10,Win32,60,,,,,,,,,,,,,,,,,,3,,,,,,,,,,,,,,,,,,,,,,,,,,,,,,,,,,,,,,,,,,,,,,,,,,,,,,,,,,,,,,,,,,,,,,,,,,,,,,,,,,,,,,,,,,,,,,,,
,,,,,,,5ee25b060f0ccf35b31431af,23,2023-07-20_21h06.23.983,templeton2A_SD_practice,2020.2.10,Win32,60,,,,,,,,,,,,,,,,,,3,,,,,,,,,,,,,,,,,,,,,,,,,,,,,,,,,,,,,,,,,,,,,,,,,,,,,,,,,,,,,,,,,,,,,,,,,,,,,,,,,,,,,,,,,,,,,,,,
,,,,,,,5ee25b060f0ccf35b31431af,23,2023-07-20_21h06.23.983,templeton2A_SD_practice,2020.2.10,Win32,60,,,,,,,,,,,,,,,,,,3,,,,,,,,,,,,,,,,,,,,,,,,,,,,,,,,,,,,,,,,,,,,,,,,,,,,,,,,,,,,,,,,,,,,,,,,,,,,,,,,,,,,,,,,,,,,,,,,
,,,,,,,5ee25b060f0ccf35b31431af,23,2023-07-20_21h06.23.983,templeton2A_SD_practice,2020.2.10,Win32,60,,,,,,,,,,,,,,,,,,3,,,,,,,,,,,,,,,,,,,,,,,,,,,,,,,,,,,,,,,,,,,,,,,,,,,,,,,,,,,,,,,,,,,,,,,,,,,,,,,,,,,,,,,,,,,,,,,,
,,,,,,,5ee25b060f0ccf35b31431af,23,2023-07-20_21h06.23.983,templeton2A_SD_practice,2020.2.10,Win32,60,,,,,,,,,,,,,,,,,,3,,,,,,,,,,,,,,,,,,,,,,,,,,,,,,,,,,,,,,,,,,,,,,,,,,,,,,,,,,,,,,,,,,,,,,,,,,,,,,,,,,,,,,,,,,,,,,,,
,,,,,,,5ee25b060f0ccf35b31431af,23,2023-07-20_21h06.23.983,templeton2A_SD_practice,2020.2.10,Win32,60,,,,,,,,,,,,,,,,,,3,,,,,,,,,,,,,,,,,,,,,,,,,,,,,,,,,,,,,,,,,,,,,,,,,,,,,,,,,,,,,,,,,,,,,,,,,,,,,,,,,,,,,,,,,,,,,,,,
,,,,,,,5ee25b060f0ccf35b31431af,23,2023-07-20_21h06.23.983,templeton2A_SD_practice,2020.2.10,Win32,60,,,,,,,,,,,,,,,,,,3,,,,,,,,,,,,,,,,,,,,,,,,,,,,,,,,,,,,,,,,,,,,,,,,,,,,,,,,,,,,,,,,,,,,,,,,,,,,,,,,,,,,,,,,,,,,,,,,
,,,,,,,5ee25b060f0ccf35b31431af,23,2023-07-20_21h06.23.983,templeton2A_SD_practice,2020.2.10,Win32,60,,,,,,,,,,,,,,,,,,3,,,,,,,,,,,,,,,,,,,,,,,,,,,,,,,,,,,,,,,,,,,,,,,,,,,,,,,,,,,,,,,,,,,,,,,,,,,,,,,,,,,,,,,,,,,,,,,,
,,,,,,,5ee25b060f0ccf35b31431af,23,2023-07-20_21h06.23.983,templeton2A_SD_practice,2020.2.10,Win32,60,,,,,,,,,,,,,,,,,,3,,,,,,,,,,,,,,,,,,,,,,,,,,,,,,,,,,,,,,,,,,,,,,,,,,,,,,,,,,,,,,,,,,,,,,,,,,,,,,,,,,,,,,,,,,,,,,,,
,,,,,,,5ee25b060f0ccf35b31431af,23,2023-07-20_21h06.23.983,templeton2A_SD_practice,2020.2.10,Win32,60,,,,,,,,,,,,,,,,,,3,,,,,,,,,,,,,,,,,,,,,,,,,,,,,,,,,,,,,,,,,,,,,,,,,,,,,,,,,,,,,,,,,,,,,,,,,,,,,,,,,,,,,,,,,,,,,,,,
,,,,,,,5ee25b060f0ccf35b31431af,23,2023-07-20_21h06.23.983,templeton2A_SD_practice,2020.2.10,Win32,60,,,,,,,,,,,,,,,,,,3,,,,,,,,,,,,,,,,,,,,,,,,,,,,,,,,,,,,,,,,,,,,,,,,,,,,,,,,,,,,,,,,,,,,,,,,,,,,,,,,,,,,,,,,,,,,,,,,
,,,,,,,5ee25b060f0ccf35b31431af,23,2023-07-20_21h06.23.983,templeton2A_SD_practice,2020.2.10,Win32,60,,,,,,,,,,,,,,,,,,3,,,,,,,,,,,,,,,,,,,,,,,,,,,,,,,,,,,,,,,,,,,,,,,,,,,,,,,,,,,,,,,,,,,,,,,,,,,,,,,,,,,,,,,,,,,,,,,,
,,,,,,,5ee25b060f0ccf35b31431af,23,2023-07-20_21h06.23.983,templeton2A_SD_practice,2020.2.10,Win32,60,,,,,,,,,,,,,,,,,,3,,,,,,,,,,,,,,,,,,,,,,,,,,,,,,,,,,,,,,,,,,,,,,,,,,,,,,,,,,,,,,,,,,,,,,,,,,,,,,,,,,,,,,,,,,,,,,,,
,,,,,,,5ee25b060f0ccf35b31431af,23,2023-07-20_21h06.23.983,templeton2A_SD_practice,2020.2.10,Win32,60,,,,,,,,,,,,,,,,,,3,,,,,,,,,,,,,,,,,,,,,,,,,,,,,,,,,,,,,,,,,,,,,,,,,,,,,,,,,,,,,,,,,,,,,,,,,,,,,,,,,,,,,,,,,,,,,,,,
,,,,,,,5ee25b060f0ccf35b31431af,23,2023-07-20_21h06.23.983,templeton2A_SD_practice,2020.2.10,Win32,60,,,,,,,,,,,,,,,,,,3,,,,,,,,,,,,,,,,,,,,,,,,,,,,,,,,,,,,,,,,,,,,,,,,,,,,,,,,,,,,,,,,,,,,,,,,,,,,,,,,,,,,,,,,,,,,,,,,
,,,,,,,5ee25b060f0ccf35b31431af,23,2023-07-20_21h06.23.983,templeton2A_SD_practice,2020.2.10,Win32,60,,,,,,,,,,,,,,,,,,3,,,,,,,,,,,,,,,,,,,,,,,,,,,,,,,,,,,,,,,,,,,,,,,,,,,,,,,,,,,,,,,,,,,,,,,,,,,,,,,,,,,,,,,,,,,,,,,,
,,,,,,,5ee25b060f0ccf35b31431af,23,2023-07-20_21h06.23.983,templeton2A_SD_practice,2020.2.10,Win32,60,,,,,,,,,,,,,,,,,,3,,,,,,,,,,,,,,,,,,,,,,,,,,,,,,,,,,,,,,,,,,,,,,,,,,,,,,,,,,,,,,,,,,,,,,,,,,,,,,,,,,,,,,,,,,,,,,,,
,,,,,,,5ee25b060f0ccf35b31431af,23,2023-07-20_21h06.23.983,templeton2A_SD_practice,2020.2.10,Win32,60,,,,,,,,,,,,,,,,,,3,,,,,,,,,,,,,,,,,,,,,,,,,,,,,,,,,,,,,,,,,,,,,,,,,,,,,,,,,,,,,,,,,,,,,,,,,,,,,,,,,,,,,,,,,,,,,,,,
,,,,,,,5ee25b060f0ccf35b31431af,23,2023-07-20_21h06.23.983,templeton2A_SD_practice,2020.2.10,Win32,60,,,,,,,,,,,,,,,,,,3,,,,,,,,,,,,,,,,,,,,,,,,,,,,,,,,,,,,,,,,,,,,,,,,,,,,,,,,,,,,,,,,,,,,,,,,,,,,,,,,,,,,,,,,,,,,,,,,
,,,,,,,5ee25b060f0ccf35b31431af,23,2023-07-20_21h06.23.983,templeton2A_SD_practice,2020.2.10,Win32,60,,,,,,,,,,,,,,,,,,3,,,,,,,,,,,,,,,,,,,,,,,,,,,,,,,,,,,,,,,,,,,,,,,,,,,,,,,,,,,,,,,,,,,,,,,,,,,,,,,,,,,,,,,,,,,,,,,,
,,,,,,,5ee25b060f0ccf35b31431af,23,2023-07-20_21h06.23.983,templeton2A_SD_practice,2020.2.10,Win32,60,,,,,,,,,,,,,,,,,,1,,,,,,,,,,,,,,,,,,,,,,,,,,,,,,,,,,,,,,,,,,,,,,,,,,,,,,,,,,,,,,,,,,,,,,,,,,,,,,,,,,,,,,,,,,,,,,,,
,,,,,,,5ee25b060f0ccf35b31431af,23,2023-07-20_21h06.23.983,templeton2A_SD_practice,2020.2.10,Win32,60,,,,,,,,,,,,,,,,,,2,,,,,,,,,,,,,,,,,,,,,,,,,,,,,,,,,,,,,,,,,,,,,,,,,,,,,,,,,,,,,,,,,,,,,,,,,,,,,,,,,,,,,,,,,,,,,,,,
,,,,,,,5ee25b060f0ccf35b31431af,23,2023-07-20_21h06.23.983,templeton2A_SD_practice,2020.2.10,Win32,60,,,,,,,,,,,,,,,,,,4,,,,,,,,,,,,,,,,,,,,,,,,,,,,,,,,,,,,,,,,,,,,,,,,,,,,,,,,,,,,,,,,,,,,,,,,,,,,,,,,,,,,,,,,,,,,,,,,
,,,,,,,5ee25b060f0ccf35b31431af,23,2023-07-20_21h06.23.983,templeton2A_SD_practice,2020.2.10,Win32,60,,,,,,,,,,,,,,,,,,4,,,,,,,,,,,,,,,,,,,,,,,,,,,,,,,,,,,,,,,,,,,,,,,,,,,,,,,,,,,,,,,,,,,,,,,,,,,,,,,,,,,,,,,,,,,,,,,,
,,,,,,,5ee25b060f0ccf35b31431af,23,2023-07-20_21h06.23.983,templeton2A_SD_practice,2020.2.10,Win32,60,,,,,,,,,,,,,,,,,,3,,,,,,,,,,,,,,,,,,,,,,,,,,,,,,,,,,,,,,,,,,,,,,,,,,,,,,,,,,,,,,,,,,,,,,,,,,,,,,,,,,,,,,,,,,,,,,,,
,,,,,,,5ee25b060f0ccf35b31431af,23,2023-07-20_21h06.23.983,templeton2A_SD_practice,2020.2.10,Win32,60,,,,,,,,,,,,,,,,,,2,,,,,,,,,,,,,,,,,,,,,,,,,,,,,,,,,,,,,,,,,,,,,,,,,,,,,,,,,,,,,,,,,,,,,,,,,,,,,,,,,,,,,,,,,,,,,,,,
,,,,,,,5ee25b060f0ccf35b31431af,23,2023-07-20_21h06.23.983,templeton2A_SD_practice,2020.2.10,Win32,60,,,,,,,,,,,,,,,,,,2,,,,,,,,,,,,,,,,,,,,,,,,,,,,,,,,,,,,,,,,,,,,,,,,,,,,,,,,,,,,,,,,,,,,,,,,,,,,,,,,,,,,,,,,,,,,,,,,
,,,,,,,5ee25b060f0ccf35b31431af,23,2023-07-20_21h06.23.983,templeton2A_SD_practice,2020.2.10,Win32,60,,,,,,,,,,,,,,,,,,2,,,,,,,,,,,,,,,,,,,,,,,,,,,,,,,,,,,,,,,,,,,,,,,,,,,,,,,,,,,,,,,,,,,,,,,,,,,,,,,,,,,,,,,,,,,,,,,,
,,,,,,,5ee25b060f0ccf35b31431af,23,2023-07-20_21h06.23.983,templeton2A_SD_practice,2020.2.10,Win32,60,,,,,,,,,,,,,,,,,,2,,,,,,,,,,,,,,,,,,,,,,,,,,,,,,,,,,,,,,,,,,,,,,,,,,,,,,,,,,,,,,,,,,,,,,,,,,,,,,,,,,,,,,,,,,,,,,,,
,,,,,,,5ee25b060f0ccf35b31431af,23,2023-07-20_21h06.23.983,templeton2A_SD_practice,2020.2.10,Win32,60,,,,,,,,,,,,,,,,,,2,,,,,,,,,,,,,,,,,,,,,,,,,,,,,,,,,,,,,,,,,,,,,,,,,,,,,,,,,,,,,,,,,,,,,,,,,,,,,,,,,,,,,,,,,,,,,,,,
,,,,,,,5ee25b060f0ccf35b31431af,23,2023-07-20_21h06.23.983,templeton2A_SD_practice,2020.2.10,Win32,60,,,,,,,,,,,,,,,,,,2,,,,,,,,,,,,,,,,,,,,,,,,,,,,,,,,,,,,,,,,,,,,,,,,,,,,,,,,,,,,,,,,,,,,,,,,,,,,,,,,,,,,,,,,,,,,,,,,
,,,,,,,5ee25b060f0ccf35b31431af,23,2023-07-20_21h06.23.983,templeton2A_SD_practice,2020.2.10,Win32,60,,,,,,,,,,,,,,,,,,2,,,,,,,,,,,,,,,,,,,,,,,,,,,,,,,,,,,,,,,,,,,,,,,,,,,,,,,,,,,,,,,,,,,,,,,,,,,,,,,,,,,,,,,,,,,,,,,,
,,,,,,,5ee25b060f0ccf35b31431af,23,2023-07-20_21h06.23.983,templeton2A_SD_practice,2020.2.10,Win32,60,,,,,,,,,,,,,,,,,,2,,,,,,,,,,,,,,,,,,,,,,,,,,,,,,,,,,,,,,,,,,,,,,,,,,,,,,,,,,,,,,,,,,,,,,,,,,,,,,,,,,,,,,,,,,,,,,,,
,,,,,,,5ee25b060f0ccf35b31431af,23,2023-07-20_21h06.23.983,templeton2A_SD_practice,2020.2.10,Win32,60,,,,,,,,,,,,,,,,,,2,,,,,,,,,,,,,,,,,,,,,,,,,,,,,,,,,,,,,,,,,,,,,,,,,,,,,,,,,,,,,,,,,,,,,,,,,,,,,,,,,,,,,,,,,,,,,,,,
,,,,,,,5ee25b060f0ccf35b31431af,23,2023-07-20_21h06.23.983,templeton2A_SD_practice,2020.2.10,Win32,60,,,,,,,,,,,,,,,,,,2,,,,,,,,,,,,,,,,,,,,,,,,,,,,,,,,,,,,,,,,,,,,,,,,,,,,,,,,,,,,,,,,,,,,,,,,,,,,,,,,,,,,,,,,,,,,,,,,
,,,,,,,5ee25b060f0ccf35b31431af,23,2023-07-20_21h06.23.983,templeton2A_SD_practice,2020.2.10,Win32,60,,,,,,,,,,,,,,,,,,2,,,,,,,,,,,,,,,,,,,,,,,,,,,,,,,,,,,,,,,,,,,,,,,,,,,,,,,,,,,,,,,,,,,,,,,,,,,,,,,,,,,,,,,,,,,,,,,,
,,,,,,,5ee25b060f0ccf35b31431af,23,2023-07-20_21h06.23.983,templeton2A_SD_practice,2020.2.10,Win32,60,,,,,,,,,,,,,,,,,,,36.3,36.4,174.9309,,,,,,,,,,,,,,,,,,,,,,,,,,,,,,,,,,,,,,,,,,,,,,,,,,,,,,,,,,,,,,,,,,,,,,,,,,,,,,,,,,,,,,,,,,,,,
,,,,,,,5ee25b060f0ccf35b31431af,23,2023-07-20_21h06.23.983,templeton2A_SD_practice,2020.2.10,Win32,60,,,,,,,,,,,,,,,,,,,,,,0.0019,6.499314556,,,,,,,,,,,,,,,,,,,,,,,,,,,,,,,,,,,,,,,,,,,,,,,,,,,,,,,,,,,,,,,,,,,,,,,,,,,,,,,,,,,,,,,,,,,
,,,,,,,5ee25b060f0ccf35b31431af,23,2023-07-20_21h06.23.983,templeton2A_SD_practice,2020.2.10,Win32,60,,,,,,,,,,,,,,,,,,,,,,0.0069,6.499314556,,,,,,,,,,,,,,,,,,,,,,,,,,,,,,,,,,,,,,,,,,,,,,,,,,,,,,,,,,,,,,,,,,,,,,,,,,,,,,,,,,,,,,,,,,,
,,,,,,,5ee25b060f0ccf35b31431af,23,2023-07-20_21h06.23.983,templeton2A_SD_practice,2020.2.10,Win32,60,,,,,,,,,,,,,,,,,,,,,,0.0145,6.499314556,,,,,,,,,,,,,,,,,,,,,,,,,,,,,,,,,,,,,,,,,,,,,,,,,,,,,,,,,,,,,,,,,,,,,,,,,,,,,,,,,,,,,,,,,,,
,,,,,,,5ee25b060f0ccf35b31431af,23,2023-07-20_21h06.23.983,templeton2A_SD_practice,2020.2.10,Win32,60,,,,,,,,,,,,,,,,,,,,,,0.0193,6.499314556,,,,,,,,,,,,,,,,,,,,,,,,,,,,,,,,,,,,,,,,,,,,,,,,,,,,,,,,,,,,,,,,,,,,,,,,,,,,,,,,,,,,,,,,,,,
,,,,,,,5ee25b060f0ccf35b31431af,23,2023-07-20_21h06.23.983,templeton2A_SD_practice,2020.2.10,Win32,60,,,,,,,,,,,,,,,,,,,,,,0.0273,6.499314556,,,,,,,,,,,,,,,,,,,,,,,,,,,,,,,,,,,,,,,,,,,,,,,,,,,,,,,,,,,,,,,,,,,,,,,,,,,,,,,,,,,,,,,,,,,
,,,,,,,5ee25b060f0ccf35b31431af,23,2023-07-20_21h06.23.983,templeton2A_SD_practice,2020.2.10,Win32,60,,,,,,,,,,,,,,,,,,,,,,0.035,6.499314556,,,,,,,,,,,,,,,,,,,,,,,,,,,,,,,,,,,,,,,,,,,,,,,,,,,,,,,,,,,,,,,,,,,,,,,,,,,,,,,,,,,,,,,,,,,
,,,,,,,5ee25b060f0ccf35b31431af,23,2023-07-20_21h06.23.983,templeton2A_SD_practice,2020.2.10,Win32,60,,,,,,,,,,,,,,,,,,,,,,0.0403,6.499314556,,,,,,,,,,,,,,,,,,,,,,,,,,,,,,,,,,,,,,,,,,,,,,,,,,,,,,,,,,,,,,,,,,,,,,,,,,,,,,,,,,,,,,,,,,,
,,,,,,,5ee25b060f0ccf35b31431af,23,2023-07-20_21h06.23.983,templeton2A_SD_practice,2020.2.10,Win32,60,,,,,,,,,,,,,,,,,,,,,,0.0479,6.499314556,,,,,,,,,,,,,,,,,,,,,,,,,,,,,,,,,,,,,,,,,,,,,,,,,,,,,,,,,,,,,,,,,,,,,,,,,,,,,,,,,,,,,,,,,,,
,,,,,,,5ee25b060f0ccf35b31431af,23,2023-07-20_21h06.23.983,templeton2A_SD_practice,2020.2.10,Win32,60,,,,,,,,,,,,,,,,,,,,,,0.0534,6.499314556,,,,,,,,,,,,,,,,,,,,,,,,,,,,,,,,,,,,,,,,,,,,,,,,,,,,,,,,,,,,,,,,,,,,,,,,,,,,,,,,,,,,,,,,,,,
,,,,,,,5ee25b060f0ccf35b31431af,23,2023-07-20_21h06.23.983,templeton2A_SD_practice,2020.2.10,Win32,60,,,,,,,,,,,,,,,,,,,,,,0.0617,6.499314556,,,,,,,,,,,,,,,,,,,,,,,,,,,,,,,,,,,,,,,,,,,,,,,,,,,,,,,,,,,,,,,,,,,,,,,,,,,,,,,,,,,,,,,,,,,
,,,,,,,5ee25b060f0ccf35b31431af,23,2023-07-20_21h06.23.983,templeton2A_SD_practice,2020.2.10,Win32,60,,,,,,,,,,,,,,,,,,,,,,0.0683,6.499314556,,,,,,,,,,,,,,,,,,,,,,,,,,,,,,,,,,,,,,,,,,,,,,,,,,,,,,,,,,,,,,,,,,,,,,,,,,,,,,,,,,,,,,,,,,,
,,,,,,,5ee25b060f0ccf35b31431af,23,2023-07-20_21h06.23.983,templeton2A_SD_practice,2020.2.10,Win32,60,,,,,,,,,,,,,,,,,,,,,,0.0742,6.499314556,,,,,,,,,,,,,,,,,,,,,,,,,,,,,,,,,,,,,,,,,,,,,,,,,,,,,,,,,,,,,,,,,,,,,,,,,,,,,,,,,,,,,,,,,,,
,,,,,,,5ee25b060f0ccf35b31431af,23,2023-07-20_21h06.23.983,templeton2A_SD_practice,2020.2.10,Win32,60,,,,,,,,,,,,,,,,,,,,,,0.0819,6.499314556,,,,,,,,,,,,,,,,,,,,,,,,,,,,,,,,,,,,,,,,,,,,,,,,,,,,,,,,,,,,,,,,,,,,,,,,,,,,,,,,,,,,,,,,,,,
,,,,,,,5ee25b060f0ccf35b31431af,23,2023-07-20_21h06.23.983,templeton2A_SD_practice,2020.2.10,Win32,60,,,,,,,,,,,,,,,,,,,,,,0.0876,6.499314556,,,,,,,,,,,,,,,,,,,,,,,,,,,,,,,,,,,,,,,,,,,,,,,,,,,,,,,,,,,,,,,,,,,,,,,,,,,,,,,,,,,,,,,,,,,
,,,,,,,5ee25b060f0ccf35b31431af,23,2023-07-20_21h06.23.983,templeton2A_SD_practice,2020.2.10,Win32,60,,,,,,,,,,,,,,,,,,,,,,0.0959,6.499314556,,,,,,,,,,,,,,,,,,,,,,,,,,,,,,,,,,,,,,,,,,,,,,,,,,,,,,,,,,,,,,,,,,,,,,,,,,,,,,,,,,,,,,,,,,,
,,,,,,,5ee25b060f0ccf35b31431af,23,2023-07-20_21h06.23.983,templeton2A_SD_practice,2020.2.10,Win32,60,,,,,,,,,,,,,,,,,,,,,,0.1021,6.499314556,,,,,,,,,,,,,,,,,,,,,,,,,,,,,,,,,,,,,,,,,,,,,,,,,,,,,,,,,,,,,,,,,,,,,,,,,,,,,,,,,,,,,,,,,,,
,,,,,,,5ee25b060f0ccf35b31431af,23,2023-07-20_21h06.23.983,templeton2A_SD_practice,2020.2.10,Win32,60,,,,,,,,,,,,,,,,,,,,,,0.1092,6.499314556,,,,,,,,,,,,,,,,,,,,,,,,,,,,,,,,,,,,,,,,,,,,,,,,,,,,,,,,,,,,,,,,,,,,,,,,,,,,,,,,,,,,,,,,,,,
,,,,,,,5ee25b060f0ccf35b31431af,23,2023-07-20_21h06.23.983,templeton2A_SD_practice,2020.2.10,Win32,60,,,,,,,,,,,,,,,,,,,,,,0.1152,6.499314556,,,,,,,,,,,,,,,,,,,,,,,,,,,,,,,,,,,,,,,,,,,,,,,,,,,,,,,,,,,,,,,,,,,,,,,,,,,,,,,,,,,,,,,,,,,
,,,,,,,5ee25b060f0ccf35b31431af,23,2023-07-20_21h06.23.983,templeton2A_SD_practice,2020.2.10,Win32,60,,,,,,,,,,,,,,,,,,,,,,0.1233,6.499314556,,,,,,,,,,,,,,,,,,,,,,,,,,,,,,,,,,,,,,,,,,,,,,,,,,,,,,,,,,,,,,,,,,,,,,,,,,,,,,,,,,,,,,,,,,,
,,,,,,,5ee25b060f0ccf35b31431af,23,2023-07-20_21h06.23.983,templeton2A_SD_practice,2020.2.10,Win32,60,,,,,,,,,,,,,,,,,,,,,,0.1313,6.499314556,,,,,,,,,,,,,,,,,,,,,,,,,,,,,,,,,,,,,,,,,,,,,,,,,,,,,,,,,,,,,,,,,,,,,,,,,,,,,,,,,,,,,,,,,,,
,,,,,,,5ee25b060f0ccf35b31431af,23,2023-07-20_21h06.23.983,templeton2A_SD_practice,2020.2.10,Win32,60,,,,,,,,,,,,,,,,,,,,,,0.1363,6.499314556,,,,,,,,,,,,,,,,,,,,,,,,,,,,,,,,,,,,,,,,,,,,,,,,,,,,,,,,,,,,,,,,,,,,,,,,,,,,,,,,,,,,,,,,,,,
,,,,,,,5ee25b060f0ccf35b31431af,23,2023-07-20_21h06.23.983,templeton2A_SD_practice,2020.2.10,Win32,60,,,,,,,,,,,,,,,,,,,,,,0.1441,6.499314556,,,,,,,,,,,,,,,,,,,,,,,,,,,,,,,,,,,,,,,,,,,,,,,,,,,,,,,,,,,,,,,,,,,,,,,,,,,,,,,,,,,,,,,,,,,
,,,,,,,5ee25b060f0ccf35b31431af,23,2023-07-20_21h06.23.983,templeton2A_SD_practice,2020.2.10,Win32,60,,,,,,,,,,,,,,,,,,,,,,0.1494,6.499314556,,,,,,,,,,,,,,,,,,,,,,,,,,,,,,,,,,,,,,,,,,,,,,,,,,,,,,,,,,,,,,,,,,,,,,,,,,,,,,,,,,,,,,,,,,,
,,,,,,,5ee25b060f0ccf35b31431af,23,2023-07-20_21h06.23.983,templeton2A_SD_practice,2020.2.10,Win32,60,,,,,,,,,,,,,,,,,,,,,,0.1578,6.499314556,,,,,,,,,,,,,,,,,,,,,,,,,,,,,,,,,,,,,,,,,,,,,,,,,,,,,,,,,,,,,,,,,,,,,,,,,,,,,,,,,,,,,,,,,,,
,,,,,,,5ee25b060f0ccf35b31431af,23,2023-07-20_21h06.23.983,templeton2A_SD_practice,2020.2.10,Win32,60,,,,,,,,,,,,,,,,,,,,,,0.1657,6.499314556,,,,,,,,,,,,,,,,,,,,,,,,,,,,,,,,,,,,,,,,,,,,,,,,,,,,,,,,,,,,,,,,,,,,,,,,,,,,,,,,,,,,,,,,,,,
,,,,,,,5ee25b060f0ccf35b31431af,23,2023-07-20_21h06.23.983,templeton2A_SD_practice,2020.2.10,Win32,60,,,,,,,,,,,,,,,,,,,,,,0.1714,6.499314556,,,,,,,,,,,,,,,,,,,,,,,,,,,,,,,,,,,,,,,,,,,,,,,,,,,,,,,,,,,,,,,,,,,,,,,,,,,,,,,,,,,,,,,,,,,
,,,,,,,5ee25b060f0ccf35b31431af,23,2023-07-20_21h06.23.983,templeton2A_SD_practice,2020.2.10,Win32,60,,,,,,,,,,,,,,,,,,,,,,0.1786,6.499314556,,,,,,,,,,,,,,,,,,,,,,,,,,,,,,,,,,,,,,,,,,,,,,,,,,,,,,,,,,,,,,,,,,,,,,,,,,,,,,,,,,,,,,,,,,,
,,,,,,,5ee25b060f0ccf35b31431af,23,2023-07-20_21h06.23.983,templeton2A_SD_practice,2020.2.10,Win32,60,,,,,,,,,,,,,,,,,,,,,,0.1843,6.499314556,,,,,,,,,,,,,,,,,,,,,,,,,,,,,,,,,,,,,,,,,,,,,,,,,,,,,,,,,,,,,,,,,,,,,,,,,,,,,,,,,,,,,,,,,,,
,,,,,,,5ee25b060f0ccf35b31431af,23,2023-07-20_21h06.23.983,templeton2A_SD_practice,2020.2.10,Win32,60,,,,,,,,,,,,,,,,,,,,,,0.1929,6.499314556,,,,,,,,,,,,,,,,,,,,,,,,,,,,,,,,,,,,,,,,,,,,,,,,,,,,,,,,,,,,,,,,,,,,,,,,,,,,,,,,,,,,,,,,,,,
,,,,,,,5ee25b060f0ccf35b31431af,23,2023-07-20_21h06.23.983,templeton2A_SD_practice,2020.2.10,Win32,60,,,,,,,,,,,,,,,,,,,,,,0.1994,6.499314556,,,,,,,,,,,,,,,,,,,,,,,,,,,,,,,,,,,,,,,,,,,,,,,,,,,,,,,,,,,,,,,,,,,,,,,,,,,,,,,,,,,,,,,,,,,
,,,,,,,5ee25b060f0ccf35b31431af,23,2023-07-20_21h06.23.983,templeton2A_SD_practice,2020.2.10,Win32,60,,,,,,,,,,,,,,,,,,,,,,0.2072,6.499314556,,,,,,,,,,,,,,,,,,,,,,,,,,,,,,,,,,,,,,,,,,,,,,,,,,,,,,,,,,,,,,,,,,,,,,,,,,,,,,,,,,,,,,,,,,,
,,,,,,,5ee25b060f0ccf35b31431af,23,2023-07-20_21h06.23.983,templeton2A_SD_practice,2020.2.10,Win32,60,,,,,,,,,,,,,,,,,,,,,,0.2126,6.499314556,,,,,,,,,,,,,,,,,,,,,,,,,,,,,,,,,,,,,,,,,,,,,,,,,,,,,,,,,,,,,,,,,,,,,,,,,,,,,,,,,,,,,,,,,,,
,,,,,,,5ee25b060f0ccf35b31431af,23,2023-07-20_21h06.23.983,templeton2A_SD_practice,2020.2.10,Win32,60,,,,,,,,,,,,,,,,,,,,,,0.22,6.499314556,,,,,,,,,,,,,,,,,,,,,,,,,,,,,,,,,,,,,,,,,,,,,,,,,,,,,,,,,,,,,,,,,,,,,,,,,,,,,,,,,,,,,,,,,,,
,,,,,,,5ee25b060f0ccf35b31431af,23,2023-07-20_21h06.23.983,templeton2A_SD_practice,2020.2.10,Win32,60,,,,,,,,,,,,,,,,,,,,,,0.2266,6.499314556,,,,,,,,,,,,,,,,,,,,,,,,,,,,,,,,,,,,,,,,,,,,,,,,,,,,,,,,,,,,,,,,,,,,,,,,,,,,,,,,,,,,,,,,,,,
,,,,,,,5ee25b060f0ccf35b31431af,23,2023-07-20_21h06.23.983,templeton2A_SD_practice,2020.2.10,Win32,60,,,,,,,,,,,,,,,,,,,,,,0.2348,6.499314556,,,,,,,,,,,,,,,,,,,,,,,,,,,,,,,,,,,,,,,,,,,,,,,,,,,,,,,,,,,,,,,,,,,,,,,,,,,,,,,,,,,,,,,,,,,
,,,,,,,5ee25b060f0ccf35b31431af,23,2023-07-20_21h06.23.983,templeton2A_SD_practice,2020.2.10,Win32,60,,,,,,,,,,,,,,,,,,,,,,0.2399,6.499314556,,,,,,,,,,,,,,,,,,,,,,,,,,,,,,,,,,,,,,,,,,,,,,,,,,,,,,,,,,,,,,,,,,,,,,,,,,,,,,,,,,,,,,,,,,,
,,,,,,,5ee25b060f0ccf35b31431af,23,2023-07-20_21h06.23.983,templeton2A_SD_practice,2020.2.10,Win32,60,,,,,,,,,,,,,,,,,,,,,,0.2489,6.499314556,,,,,,,,,,,,,,,,,,,,,,,,,,,,,,,,,,,,,,,,,,,,,,,,,,,,,,,,,,,,,,,,,,,,,,,,,,,,,,,,,,,,,,,,,,,
,,,,,,,5ee25b060f0ccf35b31431af,23,2023-07-20_21h06.23.983,templeton2A_SD_practice,2020.2.10,Win32,60,,,,,,,,,,,,,,,,,,,,,,0.2563,6.499314556,,,,,,,,,,,,,,,,,,,,,,,,,,,,,,,,,,,,,,,,,,,,,,,,,,,,,,,,,,,,,,,,,,,,,,,,,,,,,,,,,,,,,,,,,,,
,,,,,,,5ee25b060f0ccf35b31431af,23,2023-07-20_21h06.23.983,templeton2A_SD_practice,2020.2.10,Win32,60,,,,,,,,,,,,,,,,,,,,,,0.2646,6.499314556,,,,,,,,,,,,,,,,,,,,,,,,,,,,,,,,,,,,,,,,,,,,,,,,,,,,,,,,,,,,,,,,,,,,,,,,,,,,,,,,,,,,,,,,,,,
,,,,,,,5ee25b060f0ccf35b31431af,23,2023-07-20_21h06.23.983,templeton2A_SD_practice,2020.2.10,Win32,60,,,,,,,,,,,,,,,,,,,,,,0.2696,6.499314556,,,,,,,,,,,,,,,,,,,,,,,,,,,,,,,,,,,,,,,,,,,,,,,,,,,,,,,,,,,,,,,,,,,,,,,,,,,,,,,,,,,,,,,,,,,
,,,,,,,5ee25b060f0ccf35b31431af,23,2023-07-20_21h06.23.983,templeton2A_SD_practice,2020.2.10,Win32,60,,,,,,,,,,,,,,,,,,,,,,0.2773,6.499314556,,,,,,,,,,,,,,,,,,,,,,,,,,,,,,,,,,,,,,,,,,,,,,,,,,,,,,,,,,,,,,,,,,,,,,,,,,,,,,,,,,,,,,,,,,,
,,,,,,,5ee25b060f0ccf35b31431af,23,2023-07-20_21h06.23.983,templeton2A_SD_practice,2020.2.10,Win32,60,,,,,,,,,,,,,,,,,,,,,,0.2824,6.499314556,,,,,,,,,,,,,,,,,,,,,,,,,,,,,,,,,,,,,,,,,,,,,,,,,,,,,,,,,,,,,,,,,,,,,,,,,,,,,,,,,,,,,,,,,,,
,,,,,,,5ee25b060f0ccf35b31431af,23,2023-07-20_21h06.23.983,templeton2A_SD_practice,2020.2.10,Win32,60,,,,,,,,,,,,,,,,,,,,,,0.291,6.499314556,,,,,,,,,,,,,,,,,,,,,,,,,,,,,,,,,,,,,,,,,,,,,,,,,,,,,,,,,,,,,,,,,,,,,,,,,,,,,,,,,,,,,,,,,,,
,,,,,,,5ee25b060f0ccf35b31431af,23,2023-07-20_21h06.23.983,templeton2A_SD_practice,2020.2.10,Win32,60,,,,,,,,,,,,,,,,,,,,,,0.2985,6.499314556,,,,,,,,,,,,,,,,,,,,,,,,,,,,,,,,,,,,,,,,,,,,,,,,,,,,,,,,,,,,,,,,,,,,,,,,,,,,,,,,,,,,,,,,,,,
,,,,,,,5ee25b060f0ccf35b31431af,23,2023-07-20_21h06.23.983,templeton2A_SD_practice,2020.2.10,Win32,60,,,,,,,,,,,,,,,,,,,,,,0.3039,6.499314556,,,,,,,,,,,,,,,,,,,,,,,,,,,,,,,,,,,,,,,,,,,,,,,,,,,,,,,,,,,,,,,,,,,,,,,,,,,,,,,,,,,,,,,,,,,
,,,,,,,5ee25b060f0ccf35b31431af,23,2023-07-20_21h06.23.983,templeton2A_SD_practice,2020.2.10,Win32,60,,,,,,,,,,,,,,,,,,,,,,0.3116,6.499314556,,,,,,,,,,,,,,,,,,,,,,,,,,,,,,,,,,,,,,,,,,,,,,,,,,,,,,,,,,,,,,,,,,,,,,,,,,,,,,,,,,,,,,,,,,,
,,,,,,,5ee25b060f0ccf35b31431af,23,2023-07-20_21h06.23.983,templeton2A_SD_practice,2020.2.10,Win32,60,,,,,,,,,,,,,,,,,,,,,,0.3173,6.499314556,,,,,,,,,,,,,,,,,,,,,,,,,,,,,,,,,,,,,,,,,,,,,,,,,,,,,,,,,,,,,,,,,,,,,,,,,,,,,,,,,,,,,,,,,,,
,,,,,,,5ee25b060f0ccf35b31431af,23,2023-07-20_21h06.23.983,templeton2A_SD_practice,2020.2.10,Win32,60,,,,,,,,,,,,,,,,,,,,,,0.3248,6.499314556,,,,,,,,,,,,,,,,,,,,,,,,,,,,,,,,,,,,,,,,,,,,,,,,,,,,,,,,,,,,,,,,,,,,,,,,,,,,,,,,,,,,,,,,,,,
,,,,,,,5ee25b060f0ccf35b31431af,23,2023-07-20_21h06.23.983,templeton2A_SD_practice,2020.2.10,Win32,60,,,,,,,,,,,,,,,,,,,,,,0.333,6.499314556,,,,,,,,,,,,,,,,,,,,,,,,,,,,,,,,,,,,,,,,,,,,,,,,,,,,,,,,,,,,,,,,,,,,,,,,,,,,,,,,,,,,,,,,,,,
,,,,,,,5ee25b060f0ccf35b31431af,23,2023-07-20_21h06.23.983,templeton2A_SD_practice,2020.2.10,Win32,60,,,,,,,,,,,,,,,,,,,,,,0.3379,6.499314556,,,,,,,,,,,,,,,,,,,,,,,,,,,,,,,,,,,,,,,,,,,,,,,,,,,,,,,,,,,,,,,,,,,,,,,,,,,,,,,,,,,,,,,,,,,
,,,,,,,5ee25b060f0ccf35b31431af,23,2023-07-20_21h06.23.983,templeton2A_SD_practice,2020.2.10,Win32,60,,,,,,,,,,,,,,,,,,,,,,0.3456,6.499314556,,,,,,,,,,,,,,,,,,,,,,,,,,,,,,,,,,,,,,,,,,,,,,,,,,,,,,,,,,,,,,,,,,,,,,,,,,,,,,,,,,,,,,,,,,,
,,,,,,,5ee25b060f0ccf35b31431af,23,2023-07-20_21h06.23.983,templeton2A_SD_practice,2020.2.10,Win32,60,,,,,,,,,,,,,,,,,,,,,,0.351,6.499314556,,,,,,,,,,,,,,,,,,,,,,,,,,,,,,,,,,,,,,,,,,,,,,,,,,,,,,,,,,,,,,,,,,,,,,,,,,,,,,,,,,,,,,,,,,,
,,,,,,,5ee25b060f0ccf35b31431af,23,2023-07-20_21h06.23.983,templeton2A_SD_practice,2020.2.10,Win32,60,,,,,,,,,,,,,,,,,,,,,,0.359,6.499314556,,,,,,,,,,,,,,,,,,,,,,,,,,,,,,,,,,,,,,,,,,,,,,,,,,,,,,,,,,,,,,,,,,,,,,,,,,,,,,,,,,,,,,,,,,,
,,,,,,,5ee25b060f0ccf35b31431af,23,2023-07-20_21h06.23.983,templeton2A_SD_practice,2020.2.10,Win32,60,,,,,,,,,,,,,,,,,,,,,,0.3674,6.499314556,,,,,,,,,,,,,,,,,,,,,,,,,,,,,,,,,,,,,,,,,,,,,,,,,,,,,,,,,,,,,,,,,,,,,,,,,,,,,,,,,,,,,,,,,,,
,,,,,,,5ee25b060f0ccf35b31431af,23,2023-07-20_21h06.23.983,templeton2A_SD_practice,2020.2.10,Win32,60,,,,,,,,,,,,,,,,,,,,,,0.3728,6.499314556,,,,,,,,,,,,,,,,,,,,,,,,,,,,,,,,,,,,,,,,,,,,,,,,,,,,,,,,,,,,,,,,,,,,,,,,,,,,,,,,,,,,,,,,,,,
,,,,,,,5ee25b060f0ccf35b31431af,23,2023-07-20_21h06.23.983,templeton2A_SD_practice,2020.2.10,Win32,60,,,,,,,,,,,,,,,,,,,,,,0.3803,6.499314556,,,,,,,,,,,,,,,,,,,,,,,,,,,,,,,,,,,,,,,,,,,,,,,,,,,,,,,,,,,,,,,,,,,,,,,,,,,,,,,,,,,,,,,,,,,
,,,,,,,5ee25b060f0ccf35b31431af,23,2023-07-20_21h06.23.983,templeton2A_SD_practice,2020.2.10,Win32,60,,,,,,,,,,,,,,,,,,,,,,0.3868,6.499314556,,,,,,,,,,,,,,,,,,,,,,,,,,,,,,,,,,,,,,,,,,,,,,,,,,,,,,,,,,,,,,,,,,,,,,,,,,,,,,,,,,,,,,,,,,,
,,,,,,,5ee25b060f0ccf35b31431af,23,2023-07-20_21h06.23.983,templeton2A_SD_practice,2020.2.10,Win32,60,,,,,,,,,,,,,,,,,,,,,,0.3944,6.499314556,,,,,,,,,,,,,,,,,,,,,,,,,,,,,,,,,,,,,,,,,,,,,,,,,,,,,,,,,,,,,,,,,,,,,,,,,,,,,,,,,,,,,,,,,,,
,,,,,,,5ee25b060f0ccf35b31431af,23,2023-07-20_21h06.23.983,templeton2A_SD_practice,2020.2.10,Win32,60,,,,,,,,,,,,,,,,,,,,,,0.4023,6.499314556,,,,,,,,,,,,,,,,,,,,,,,,,,,,,,,,,,,,,,,,,,,,,,,,,,,,,,,,,,,,,,,,,,,,,,,,,,,,,,,,,,,,,,,,,,,
,,,,,,,5ee25b060f0ccf35b31431af,23,2023-07-20_21h06.23.983,templeton2A_SD_practice,2020.2.10,Win32,60,,,,,,,,,,,,,,,,,,,,,,0.4074,6.499314556,,,,,,,,,,,,,,,,,,,,,,,,,,,,,,,,,,,,,,,,,,,,,,,,,,,,,,,,,,,,,,,,,,,,,,,,,,,,,,,,,,,,,,,,,,,
,,,,,,,5ee25b060f0ccf35b31431af,23,2023-07-20_21h06.23.983,templeton2A_SD_practice,2020.2.10,Win32,60,,,,,,,,,,,,,,,,,,,,,,0.4157,6.499314556,,,,,,,,,,,,,,,,,,,,,,,,,,,,,,,,,,,,,,,,,,,,,,,,,,,,,,,,,,,,,,,,,,,,,,,,,,,,,,,,,,,,,,,,,,,
,,,,,,,5ee25b060f0ccf35b31431af,23,2023-07-20_21h06.23.983,templeton2A_SD_practice,2020.2.10,Win32,60,,,,,,,,,,,,,,,,,,,,,,0.4209,6.499314556,,,,,,,,,,,,,,,,,,,,,,,,,,,,,,,,,,,,,,,,,,,,,,,,,,,,,,,,,,,,,,,,,,,,,,,,,,,,,,,,,,,,,,,,,,,
,,,,,,,5ee25b060f0ccf35b31431af,23,2023-07-20_21h06.23.983,templeton2A_SD_practice,2020.2.10,Win32,60,,,,,,,,,,,,,,,,,,,,,,0.43,6.499314556,,,,,,,,,,,,,,,,,,,,,,,,,,,,,,,,,,,,,,,,,,,,,,,,,,,,,,,,,,,,,,,,,,,,,,,,,,,,,,,,,,,,,,,,,,,
,,,,,,,5ee25b060f0ccf35b31431af,23,2023-07-20_21h06.23.983,templeton2A_SD_practice,2020.2.10,Win32,60,,,,,,,,,,,,,,,,,,,,,,0.4368,6.499314556,,,,,,,,,,,,,,,,,,,,,,,,,,,,,,,,,,,,,,,,,,,,,,,,,,,,,,,,,,,,,,,,,,,,,,,,,,,,,,,,,,,,,,,,,,,
,,,,,,,5ee25b060f0ccf35b31431af,23,2023-07-20_21h06.23.983,templeton2A_SD_practice,2020.2.10,Win32,60,,,,,,,,,,,,,,,,,,,,,,0.4437,6.499314556,,,,,,,,,,,,,,,,,,,,,,,,,,,,,,,,,,,,,,,,,,,,,,,,,,,,,,,,,,,,,,,,,,,,,,,,,,,,,,,,,,,,,,,,,,,
,,,,,,,5ee25b060f0ccf35b31431af,23,2023-07-20_21h06.23.983,templeton2A_SD_practice,2020.2.10,Win32,60,,,,,,,,,,,,,,,,,,,,,,0.4519,6.499314556,,,,,,,,,,,,,,,,,,,,,,,,,,,,,,,,,,,,,,,,,,,,,,,,,,,,,,,,,,,,,,,,,,,,,,,,,,,,,,,,,,,,,,,,,,,
,,,,,,,5ee25b060f0ccf35b31431af,23,2023-07-20_21h06.23.983,templeton2A_SD_practice,2020.2.10,Win32,60,,,,,,,,,,,,,,,,,,,,,,0.4582,6.499314556,,,,,,,,,,,,,,,,,,,,,,,,,,,,,,,,,,,,,,,,,,,,,,,,,,,,,,,,,,,,,,,,,,,,,,,,,,,,,,,,,,,,,,,,,,,
,,,,,,,5ee25b060f0ccf35b31431af,23,2023-07-20_21h06.23.983,templeton2A_SD_practice,2020.2.10,Win32,60,,,,,,,,,,,,,,,,,,,,,,0.4664,6.499314556,,,,,,,,,,,,,,,,,,,,,,,,,,,,,,,,,,,,,,,,,,,,,,,,,,,,,,,,,,,,,,,,,,,,,,,,,,,,,,,,,,,,,,,,,,,
,,,,,,,5ee25b060f0ccf35b31431af,23,2023-07-20_21h06.23.983,templeton2A_SD_practice,2020.2.10,Win32,60,,,,,,,,,,,,,,,,,,,,,,0.4719,6.499314556,,,,,,,,,,,,,,,,,,,,,,,,,,,,,,,,,,,,,,,,,,,,,,,,,,,,,,,,,,,,,,,,,,,,,,,,,,,,,,,,,,,,,,,,,,,
,,,,,,,5ee25b060f0ccf35b31431af,23,2023-07-20_21h06.23.983,templeton2A_SD_practice,2020.2.10,Win32,60,,,,,,,,,,,,,,,,,,,,,,0.4801,6.499314556,,,,,,,,,,,,,,,,,,,,,,,,,,,,,,,,,,,,,,,,,,,,,,,,,,,,,,,,,,,,,,,,,,,,,,,,,,,,,,,,,,,,,,,,,,,
,,,,,,,5ee25b060f0ccf35b31431af,23,2023-07-20_21h06.23.983,templeton2A_SD_practice,2020.2.10,Win32,60,,,,,,,,,,,,,,,,,,,,,,0.4855,6.499314556,,,,,,,,,,,,,,,,,,,,,,,,,,,,,,,,,,,,,,,,,,,,,,,,,,,,,,,,,,,,,,,,,,,,,,,,,,,,,,,,,,,,,,,,,,,
,,,,,,,5ee25b060f0ccf35b31431af,23,2023-07-20_21h06.23.983,templeton2A_SD_practice,2020.2.10,Win32,60,,,,,,,,,,,,,,,,,,,,,,0.4939,6.499314556,,,,,,,,,,,,,,,,,,,,,,,,,,,,,,,,,,,,,,,,,,,,,,,,,,,,,,,,,,,,,,,,,,,,,,,,,,,,,,,,,,,,,,,,,,,
,,,,,,,5ee25b060f0ccf35b31431af,23,2023-07-20_21h06.23.983,templeton2A_SD_practice,2020.2.10,Win32,60,,,,,,,,,,,,,,,,,,,,,,0.5035,6.499314556,,,,,,,,,,,,,,,,,,,,,,,,,,,,,,,,,,,,,,,,,,,,,,,,,,,,,,,,,,,,,,,,,,,,,,,,,,,,,,,,,,,,,,,,,,,
,,,,,,,5ee25b060f0ccf35b31431af,23,2023-07-20_21h06.23.983,templeton2A_SD_practice,2020.2.10,Win32,60,,,,,,,,,,,,,,,,,,,,,,0.5098,6.499314556,,,,,,,,,,,,,,,,,,,,,,,,,,,,,,,,,,,,,,,,,,,,,,,,,,,,,,,,,,,,,,,,,,,,,,,,,,,,,,,,,,,,,,,,,,,
,,,,,,,5ee25b060f0ccf35b31431af,23,2023-07-20_21h06.23.983,templeton2A_SD_practice,2020.2.10,Win32,60,,,,,,,,,,,,,,,,,,,,,,0.5169,6.499314556,,,,,,,,,,,,,,,,,,,,,,,,,,,,,,,,,,,,,,,,,,,,,,,,,,,,,,,,,,,,,,,,,,,,,,,,,,,,,,,,,,,,,,,,,,,
,,,,,,,5ee25b060f0ccf35b31431af,23,2023-07-20_21h06.23.983,templeton2A_SD_practice,2020.2.10,Win32,60,,,,,,,,,,,,,,,,,,,,,,0.5248,6.499314556,,,,,,,,,,,,,,,,,,,,,,,,,,,,,,,,,,,,,,,,,,,,,,,,,,,,,,,,,,,,,,,,,,,,,,,,,,,,,,,,,,,,,,,,,,,
,,,,,,,5ee25b060f0ccf35b31431af,23,2023-07-20_21h06.23.983,templeton2A_SD_practice,2020.2.10,Win32,60,,,,,,,,,,,,,,,,,,,,,,0.532,6.499314556,,,,,,,,,,,,,,,,,,,,,,,,,,,,,,,,,,,,,,,,,,,,,,,,,,,,,,,,,,,,,,,,,,,,,,,,,,,,,,,,,,,,,,,,,,,
,,,,,,,5ee25b060f0ccf35b31431af,23,2023-07-20_21h06.23.983,templeton2A_SD_practice,2020.2.10,Win32,60,,,,,,,,,,,,,,,,,,,,,,0.5399,6.499314556,,,,,,,,,,,,,,,,,,,,,,,,,,,,,,,,,,,,,,,,,,,,,,,,,,,,,,,,,,,,,,,,,,,,,,,,,,,,,,,,,,,,,,,,,,,
,,,,,,,5ee25b060f0ccf35b31431af,23,2023-07-20_21h06.23.983,templeton2A_SD_practice,2020.2.10,Win32,60,,,,,,,,,,,,,,,,,,,,,,0.5455,6.499314556,,,,,,,,,,,,,,,,,,,,,,,,,,,,,,,,,,,,,,,,,,,,,,,,,,,,,,,,,,,,,,,,,,,,,,,,,,,,,,,,,,,,,,,,,,,
,,,,,,,5ee25b060f0ccf35b31431af,23,2023-07-20_21h06.23.983,templeton2A_SD_practice,2020.2.10,Win32,60,,,,,,,,,,,,,,,,,,,,,,0.5534,6.499314556,,,,,,,,,,,,,,,,,,,,,,,,,,,,,,,,,,,,,,,,,,,,,,,,,,,,,,,,,,,,,,,,,,,,,,,,,,,,,,,,,,,,,,,,,,,
,,,,,,,5ee25b060f0ccf35b31431af,23,2023-07-20_21h06.23.983,templeton2A_SD_practice,2020.2.10,Win32,60,,,,,,,,,,,,,,,,,,,,,,0.5602,6.499314556,,,,,,,,,,,,,,,,,,,,,,,,,,,,,,,,,,,,,,,,,,,,,,,,,,,,,,,,,,,,,,,,,,,,,,,,,,,,,,,,,,,,,,,,,,,
,,,,,,,5ee25b060f0ccf35b31431af,23,2023-07-20_21h06.23.983,templeton2A_SD_practice,2020.2.10,Win32,60,,,,,,,,,,,,,,,,,,,,,,0.568,6.499314556,,,,,,,,,,,,,,,,,,,,,,,,,,,,,,,,,,,,,,,,,,,,,,,,,,,,,,,,,,,,,,,,,,,,,,,,,,,,,,,,,,,,,,,,,,,
,,,,,,,5ee25b060f0ccf35b31431af,23,2023-07-20_21h06.23.983,templeton2A_SD_practice,2020.2.10,Win32,60,,,,,,,,,,,,,,,,,,,,,,0.5751,6.499314556,,,,,,,,,,,,,,,,,,,,,,,,,,,,,,,,,,,,,,,,,,,,,,,,,,,,,,,,,,,,,,,,,,,,,,,,,,,,,,,,,,,,,,,,,,,
,,,,,,,5ee25b060f0ccf35b31431af,23,2023-07-20_21h06.23.983,templeton2A_SD_practice,2020.2.10,Win32,60,,,,,,,,,,,,,,,,,,,,,,0.5811,6.499314556,,,,,,,,,,,,,,,,,,,,,,,,,,,,,,,,,,,,,,,,,,,,,,,,,,,,,,,,,,,,,,,,,,,,,,,,,,,,,,,,,,,,,,,,,,,
,,,,,,,5ee25b060f0ccf35b31431af,23,2023-07-20_21h06.23.983,templeton2A_SD_practice,2020.2.10,Win32,60,,,,,,,,,,,,,,,,,,,,,,0.5884,6.499314556,,,,,,,,,,,,,,,,,,,,,,,,,,,,,,,,,,,,,,,,,,,,,,,,,,,,,,,,,,,,,,,,,,,,,,,,,,,,,,,,,,,,,,,,,,,
,,,,,,,5ee25b060f0ccf35b31431af,23,2023-07-20_21h06.23.983,templeton2A_SD_practice,2020.2.10,Win32,60,,,,,,,,,,,,,,,,,,,,,,0.596,6.499314556,,,,,,,,,,,,,,,,,,,,,,,,,,,,,,,,,,,,,,,,,,,,,,,,,,,,,,,,,,,,,,,,,,,,,,,,,,,,,,,,,,,,,,,,,,,
,,,,,,,5ee25b060f0ccf35b31431af,23,2023-07-20_21h06.23.983,templeton2A_SD_practice,2020.2.10,Win32,60,,,,,,,,,,,,,,,,,,,,,,0.6047,6.499314556,,,,,,,,,,,,,,,,,,,,,,,,,,,,,,,,,,,,,,,,,,,,,,,,,,,,,,,,,,,,,,,,,,,,,,,,,,,,,,,,,,,,,,,,,,,
,,,,,,,5ee25b060f0ccf35b31431af,23,2023-07-20_21h06.23.983,templeton2A_SD_practice,2020.2.10,Win32,60,,,,,,,,,,,,,,,,,,,,,,0.6108,6.499314556,,,,,,,,,,,,,,,,,,,,,,,,,,,,,,,,,,,,,,,,,,,,,,,,,,,,,,,,,,,,,,,,,,,,,,,,,,,,,,,,,,,,,,,,,,,
,,,,,,,5ee25b060f0ccf35b31431af,23,2023-07-20_21h06.23.983,templeton2A_SD_practice,2020.2.10,Win32,60,,,,,,,,,,,,,,,,,,,,,,0.6186,6.499314556,,,,,,,,,,,,,,,,,,,,,,,,,,,,,,,,,,,,,,,,,,,,,,,,,,,,,,,,,,,,,,,,,,,,,,,,,,,,,,,,,,,,,,,,,,,
,,,,,,,5ee25b060f0ccf35b31431af,23,2023-07-20_21h06.23.983,templeton2A_SD_practice,2020.2.10,Win32,60,,,,,,,,,,,,,,,,,,,,,,0.6254,6.499314556,,,,,,,,,,,,,,,,,,,,,,,,,,,,,,,,,,,,,,,,,,,,,,,,,,,,,,,,,,,,,,,,,,,,,,,,,,,,,,,,,,,,,,,,,,,
,,,,,,,5ee25b060f0ccf35b31431af,23,2023-07-20_21h06.23.983,templeton2A_SD_practice,2020.2.10,Win32,60,,,,,,,,,,,,,,,,,,,,,,0.6323,6.499314556,,,,,,,,,,,,,,,,,,,,,,,,,,,,,,,,,,,,,,,,,,,,,,,,,,,,,,,,,,,,,,,,,,,,,,,,,,,,,,,,,,,,,,,,,,,
,,,,,,,5ee25b060f0ccf35b31431af,23,2023-07-20_21h06.23.983,templeton2A_SD_practice,2020.2.10,Win32,60,,,,,,,,,,,,,,,,,,,,,,0.6421,6.499314556,,,,,,,,,,,,,,,,,,,,,,,,,,,,,,,,,,,,,,,,,,,,,,,,,,,,,,,,,,,,,,,,,,,,,,,,,,,,,,,,,,,,,,,,,,,
,,,,,,,5ee25b060f0ccf35b31431af,23,2023-07-20_21h06.23.983,templeton2A_SD_practice,2020.2.10,Win32,60,,,,,,,,,,,,,,,,,,,,,,0.6493,6.499314556,,,,,,,,,,,,,,,,,,,,,,,,,,,,,,,,,,,,,,,,,,,,,,,,,,,,,,,,,,,,,,,,,,,,,,,,,,,,,,,,,,,,,,,,,,,
,,,,,,,5ee25b060f0ccf35b31431af,23,2023-07-20_21h06.23.983,templeton2A_SD_practice,2020.2.10,Win32,60,,,,,,,,,,,,,,,,,,,,,,0.6578,6.499314556,,,,,,,,,,,,,,,,,,,,,,,,,,,,,,,,,,,,,,,,,,,,,,,,,,,,,,,,,,,,,,,,,,,,,,,,,,,,,,,,,,,,,,,,,,,
,,,,,,,5ee25b060f0ccf35b31431af,23,2023-07-20_21h06.23.983,templeton2A_SD_practice,2020.2.10,Win32,60,,,,,,,,,,,,,,,,,,,,,,0.6651,6.499314556,,,,,,,,,,,,,,,,,,,,,,,,,,,,,,,,,,,,,,,,,,,,,,,,,,,,,,,,,,,,,,,,,,,,,,,,,,,,,,,,,,,,,,,,,,,
,,,,,,,5ee25b060f0ccf35b31431af,23,2023-07-20_21h06.23.983,templeton2A_SD_practice,2020.2.10,Win32,60,,,,,,,,,,,,,,,,,,,,,,0.6715,6.499314556,,,,,,,,,,,,,,,,,,,,,,,,,,,,,,,,,,,,,,,,,,,,,,,,,,,,,,,,,,,,,,,,,,,,,,,,,,,,,,,,,,,,,,,,,,,
,,,,,,,5ee25b060f0ccf35b31431af,23,2023-07-20_21h06.23.983,templeton2A_SD_practice,2020.2.10,Win32,60,,,,,,,,,,,,,,,,,,,,,,0.6793,6.499314556,,,,,,,,,,,,,,,,,,,,,,,,,,,,,,,,,,,,,,,,,,,,,,,,,,,,,,,,,,,,,,,,,,,,,,,,,,,,,,,,,,,,,,,,,,,
,,,,,,,5ee25b060f0ccf35b31431af,23,2023-07-20_21h06.23.983,templeton2A_SD_practice,2020.2.10,Win32,60,,,,,,,,,,,,,,,,,,,,,,0.6853,6.499314556,,,,,,,,,,,,,,,,,,,,,,,,,,,,,,,,,,,,,,,,,,,,,,,,,,,,,,,,,,,,,,,,,,,,,,,,,,,,,,,,,,,,,,,,,,,
,,,,,,,5ee25b060f0ccf35b31431af,23,2023-07-20_21h06.23.983,templeton2A_SD_practice,2020.2.10,Win32,60,,,,,,,,,,,,,,,,,,,,,,0.693,6.499314556,,,,,,,,,,,,,,,,,,,,,,,,,,,,,,,,,,,,,,,,,,,,,,,,,,,,,,,,,,,,,,,,,,,,,,,,,,,,,,,,,,,,,,,,,,,
,,,,,,,5ee25b060f0ccf35b31431af,23,2023-07-20_21h06.23.983,templeton2A_SD_practice,2020.2.10,Win32,60,,,,,,,,,,,,,,,,,,,,,,0.7013,6.499314556,,,,,,,,,,,,,,,,,,,,,,,,,,,,,,,,,,,,,,,,,,,,,,,,,,,,,,,,,,,,,,,,,,,,,,,,,,,,,,,,,,,,,,,,,,,
,,,,,,,5ee25b060f0ccf35b31431af,23,2023-07-20_21h06.23.983,templeton2A_SD_practice,2020.2.10,Win32,60,,,,,,,,,,,,,,,,,,,,,,0.7072,6.499314556,,,,,,,,,,,,,,,,,,,,,,,,,,,,,,,,,,,,,,,,,,,,,,,,,,,,,,,,,,,,,,,,,,,,,,,,,,,,,,,,,,,,,,,,,,,
,,,,,,,5ee25b060f0ccf35b31431af,23,2023-07-20_21h06.23.983,templeton2A_SD_practice,2020.2.10,Win32,60,,,,,,,,,,,,,,,,,,,,,,0.7151,6.499314556,,,,,,,,,,,,,,,,,,,,,,,,,,,,,,,,,,,,,,,,,,,,,,,,,,,,,,,,,,,,,,,,,,,,,,,,,,,,,,,,,,,,,,,,,,,
,,,,,,,5ee25b060f0ccf35b31431af,23,2023-07-20_21h06.23.983,templeton2A_SD_practice,2020.2.10,Win32,60,,,,,,,,,,,,,,,,,,,,,,0.7205,6.499314556,,,,,,,,,,,,,,,,,,,,,,,,,,,,,,,,,,,,,,,,,,,,,,,,,,,,,,,,,,,,,,,,,,,,,,,,,,,,,,,,,,,,,,,,,,,
,,,,,,,5ee25b060f0ccf35b31431af,23,2023-07-20_21h06.23.983,templeton2A_SD_practice,2020.2.10,Win32,60,,,,,,,,,,,,,,,,,,,,,,0.7297,6.499314556,,,,,,,,,,,,,,,,,,,,,,,,,,,,,,,,,,,,,,,,,,,,,,,,,,,,,,,,,,,,,,,,,,,,,,,,,,,,,,,,,,,,,,,,,,,
,,,,,,,5ee25b060f0ccf35b31431af,23,2023-07-20_21h06.23.983,templeton2A_SD_practice,2020.2.10,Win32,60,,,,,,,,,,,,,,,,,,,,,,0.7371,6.499314556,,,,,,,,,,,,,,,,,,,,,,,,,,,,,,,,,,,,,,,,,,,,,,,,,,,,,,,,,,,,,,,,,,,,,,,,,,,,,,,,,,,,,,,,,,,
,,,,,,,5ee25b060f0ccf35b31431af,23,2023-07-20_21h06.23.983,templeton2A_SD_practice,2020.2.10,Win32,60,,,,,,,,,,,,,,,,,,,,,,0.7438,6.499314556,,,,,,,,,,,,,,,,,,,,,,,,,,,,,,,,,,,,,,,,,,,,,,,,,,,,,,,,,,,,,,,,,,,,,,,,,,,,,,,,,,,,,,,,,,,
,,,,,,,5ee25b060f0ccf35b31431af,23,2023-07-20_21h06.23.983,templeton2A_SD_practice,2020.2.10,Win32,60,,,,,,,,,,,,,,,,,,,,,,0.7495,6.499314556,,,,,,,,,,,,,,,,,,,,,,,,,,,,,,,,,,,,,,,,,,,,,,,,,,,,,,,,,,,,,,,,,,,,,,,,,,,,,,,,,,,,,,,,,,,
,,,,,,,5ee25b060f0ccf35b31431af,23,2023-07-20_21h06.23.983,templeton2A_SD_practice,2020.2.10,Win32,60,,,,,,,,,,,,,,,,,,,,,,0.7556,6.499314556,,,,,,,,,,,,,,,,,,,,,,,,,,,,,,,,,,,,,,,,,,,,,,,,,,,,,,,,,,,,,,,,,,,,,,,,,,,,,,,,,,,,,,,,,,,
,,,,,,,5ee25b060f0ccf35b31431af,23,2023-07-20_21h06.23.983,templeton2A_SD_practice,2020.2.10,Win32,60,,,,,,,,,,,,,,,,,,,,,,0.7686,6.499314556,,,,,,,,,,,,,,,,,,,,,,,,,,,,,,,,,,,,,,,,,,,,,,,,,,,,,,,,,,,,,,,,,,,,,,,,,,,,,,,,,,,,,,,,,,,
,,,,,,,5ee25b060f0ccf35b31431af,23,2023-07-20_21h06.23.983,templeton2A_SD_practice,2020.2.10,Win32,60,,,,,,,,,,,,,,,,,,,,,,0.7748,6.499314556,,,,,,,,,,,,,,,,,,,,,,,,,,,,,,,,,,,,,,,,,,,,,,,,,,,,,,,,,,,,,,,,,,,,,,,,,,,,,,,,,,,,,,,,,,,
,,,,,,,5ee25b060f0ccf35b31431af,23,2023-07-20_21h06.23.983,templeton2A_SD_practice,2020.2.10,Win32,60,,,,,,,,,,,,,,,,,,,,,,0.7833,6.499314556,,,,,,,,,,,,,,,,,,,,,,,,,,,,,,,,,,,,,,,,,,,,,,,,,,,,,,,,,,,,,,,,,,,,,,,,,,,,,,,,,,,,,,,,,,,
,,,,,,,5ee25b060f0ccf35b31431af,23,2023-07-20_21h06.23.983,templeton2A_SD_practice,2020.2.10,Win32,60,,,,,,,,,,,,,,,,,,,,,,0.7886,6.499314556,,,,,,,,,,,,,,,,,,,,,,,,,,,,,,,,,,,,,,,,,,,,,,,,,,,,,,,,,,,,,,,,,,,,,,,,,,,,,,,,,,,,,,,,,,,
,,,,,,,5ee25b060f0ccf35b31431af,23,2023-07-20_21h06.23.983,templeton2A_SD_practice,2020.2.10,Win32,60,,,,,,,,,,,,,,,,,,,,,,0.7985,6.499314556,,,,,,,,,,,,,,,,,,,,,,,,,,,,,,,,,,,,,,,,,,,,,,,,,,,,,,,,,,,,,,,,,,,,,,,,,,,,,,,,,,,,,,,,,,,
,,,,,,,5ee25b060f0ccf35b31431af,23,2023-07-20_21h06.23.983,templeton2A_SD_practice,2020.2.10,Win32,60,,,,,,,,,,,,,,,,,,,,,,0.8046,6.499314556,,,,,,,,,,,,,,,,,,,,,,,,,,,,,,,,,,,,,,,,,,,,,,,,,,,,,,,,,,,,,,,,,,,,,,,,,,,,,,,,,,,,,,,,,,,
,,,,,,,5ee25b060f0ccf35b31431af,23,2023-07-20_21h06.23.983,templeton2A_SD_practice,2020.2.10,Win32,60,,,,,,,,,,,,,,,,,,,,,,0.8123,6.499314556,,,,,,,,,,,,,,,,,,,,,,,,,,,,,,,,,,,,,,,,,,,,,,,,,,,,,,,,,,,,,,,,,,,,,,,,,,,,,,,,,,,,,,,,,,,
,,,,,,,5ee25b060f0ccf35b31431af,23,2023-07-20_21h06.23.983,templeton2A_SD_practice,2020.2.10,Win32,60,,,,,,,,,,,,,,,,,,,,,,0.8175,6.499314556,,,,,,,,,,,,,,,,,,,,,,,,,,,,,,,,,,,,,,,,,,,,,,,,,,,,,,,,,,,,,,,,,,,,,,,,,,,,,,,,,,,,,,,,,,,
,,,,,,,5ee25b060f0ccf35b31431af,23,2023-07-20_21h06.23.983,templeton2A_SD_practice,2020.2.10,Win32,60,,,,,,,,,,,,,,,,,,,,,,0.8254,6.499314556,,,,,,,,,,,,,,,,,,,,,,,,,,,,,,,,,,,,,,,,,,,,,,,,,,,,,,,,,,,,,,,,,,,,,,,,,,,,,,,,,,,,,,,,,,,
,,,,,,,5ee25b060f0ccf35b31431af,23,2023-07-20_21h06.23.983,templeton2A_SD_practice,2020.2.10,Win32,60,,,,,,,,,,,,,,,,,,,,,,0.8343,6.499314556,,,,,,,,,,,,,,,,,,,,,,,,,,,,,,,,,,,,,,,,,,,,,,,,,,,,,,,,,,,,,,,,,,,,,,,,,,,,,,,,,,,,,,,,,,,
,,,,,,,5ee25b060f0ccf35b31431af,23,2023-07-20_21h06.23.983,templeton2A_SD_practice,2020.2.10,Win32,60,,,,,,,,,,,,,,,,,,,,,,0.8396,6.499314556,,,,,,,,,,,,,,,,,,,,,,,,,,,,,,,,,,,,,,,,,,,,,,,,,,,,,,,,,,,,,,,,,,,,,,,,,,,,,,,,,,,,,,,,,,,
,,,,,,,5ee25b060f0ccf35b31431af,23,2023-07-20_21h06.23.983,templeton2A_SD_practice,2020.2.10,Win32,60,,,,,,,,,,,,,,,,,,,,,,0.8475,6.499314556,,,,,,,,,,,,,,,,,,,,,,,,,,,,,,,,,,,,,,,,,,,,,,,,,,,,,,,,,,,,,,,,,,,,,,,,,,,,,,,,,,,,,,,,,,,
,,,,,,,5ee25b060f0ccf35b31431af,23,2023-07-20_21h06.23.983,templeton2A_SD_practice,2020.2.10,Win32,60,,,,,,,,,,,,,,,,,,,,,,0.853,6.499314556,,,,,,,,,,,,,,,,,,,,,,,,,,,,,,,,,,,,,,,,,,,,,,,,,,,,,,,,,,,,,,,,,,,,,,,,,,,,,,,,,,,,,,,,,,,
,,,,,,,5ee25b060f0ccf35b31431af,23,2023-07-20_21h06.23.983,templeton2A_SD_practice,2020.2.10,Win32,60,,,,,,,,,,,,,,,,,,,,,,0.8608,6.499314556,,,,,,,,,,,,,,,,,,,,,,,,,,,,,,,,,,,,,,,,,,,,,,,,,,,,,,,,,,,,,,,,,,,,,,,,,,,,,,,,,,,,,,,,,,,
,,,,,,,5ee25b060f0ccf35b31431af,23,2023-07-20_21h06.23.983,templeton2A_SD_practice,2020.2.10,Win32,60,,,,,,,,,,,,,,,,,,,,,,0.8694,6.499314556,,,,,,,,,,,,,,,,,,,,,,,,,,,,,,,,,,,,,,,,,,,,,,,,,,,,,,,,,,,,,,,,,,,,,,,,,,,,,,,,,,,,,,,,,,,
,,,,,,,5ee25b060f0ccf35b31431af,23,2023-07-20_21h06.23.983,templeton2A_SD_practice,2020.2.10,Win32,60,,,,,,,,,,,,,,,,,,,,,,0.8746,6.499314556,,,,,,,,,,,,,,,,,,,,,,,,,,,,,,,,,,,,,,,,,,,,,,,,,,,,,,,,,,,,,,,,,,,,,,,,,,,,,,,,,,,,,,,,,,,
,,,,,,,5ee25b060f0ccf35b31431af,23,2023-07-20_21h06.23.983,templeton2A_SD_practice,2020.2.10,Win32,60,,,,,,,,,,,,,,,,,,,,,,0.8827,6.499314556,,,,,,,,,,,,,,,,,,,,,,,,,,,,,,,,,,,,,,,,,,,,,,,,,,,,,,,,,,,,,,,,,,,,,,,,,,,,,,,,,,,,,,,,,,,
,,,,,,,5ee25b060f0ccf35b31431af,23,2023-07-20_21h06.23.983,templeton2A_SD_practice,2020.2.10,Win32,60,,,,,,,,,,,,,,,,,,,,,,0.8877,6.499314556,,,,,,,,,,,,,,,,,,,,,,,,,,,,,,,,,,,,,,,,,,,,,,,,,,,,,,,,,,,,,,,,,,,,,,,,,,,,,,,,,,,,,,,,,,,
,,,,,,,5ee25b060f0ccf35b31431af,23,2023-07-20_21h06.23.983,templeton2A_SD_practice,2020.2.10,Win32,60,,,,,,,,,,,,,,,,,,,,,,0.8952,6.499314556,,,,,,,,,,,,,,,,,,,,,,,,,,,,,,,,,,,,,,,,,,,,,,,,,,,,,,,,,,,,,,,,,,,,,,,,,,,,,,,,,,,,,,,,,,,
,,,,,,,5ee25b060f0ccf35b31431af,23,2023-07-20_21h06.23.983,templeton2A_SD_practice,2020.2.10,Win32,60,,,,,,,,,,,,,,,,,,,,,,0.9011,6.499314556,,,,,,,,,,,,,,,,,,,,,,,,,,,,,,,,,,,,,,,,,,,,,,,,,,,,,,,,,,,,,,,,,,,,,,,,,,,,,,,,,,,,,,,,,,,
,,,,,,,5ee25b060f0ccf35b31431af,23,2023-07-20_21h06.23.983,templeton2A_SD_practice,2020.2.10,Win32,60,,,,,,,,,,,,,,,,,,,,,,0.9066,6.499314556,,,,,,,,,,,,,,,,,,,,,,,,,,,,,,,,,,,,,,,,,,,,,,,,,,,,,,,,,,,,,,,,,,,,,,,,,,,,,,,,,,,,,,,,,,,
,,,,,,,5ee25b060f0ccf35b31431af,23,2023-07-20_21h06.23.983,templeton2A_SD_practice,2020.2.10,Win32,60,,,,,,,,,,,,,,,,,,,,,,0.9139,6.499314556,,,,,,,,,,,,,,,,,,,,,,,,,,,,,,,,,,,,,,,,,,,,,,,,,,,,,,,,,,,,,,,,,,,,,,,,,,,,,,,,,,,,,,,,,,,
,,,,,,,5ee25b060f0ccf35b31431af,23,2023-07-20_21h06.23.983,templeton2A_SD_practice,2020.2.10,Win32,60,,,,,,,,,,,,,,,,,,,,,,0.9204,6.499314556,,,,,,,,,,,,,,,,,,,,,,,,,,,,,,,,,,,,,,,,,,,,,,,,,,,,,,,,,,,,,,,,,,,,,,,,,,,,,,,,,,,,,,,,,,,
,,,,,,,5ee25b060f0ccf35b31431af,23,2023-07-20_21h06.23.983,templeton2A_SD_practice,2020.2.10,Win32,60,,,,,,,,,,,,,,,,,,,,,,0.9284,6.499314556,,,,,,,,,,,,,,,,,,,,,,,,,,,,,,,,,,,,,,,,,,,,,,,,,,,,,,,,,,,,,,,,,,,,,,,,,,,,,,,,,,,,,,,,,,,
,,,,,,,5ee25b060f0ccf35b31431af,23,2023-07-20_21h06.23.983,templeton2A_SD_practice,2020.2.10,Win32,60,,,,,,,,,,,,,,,,,,,,,,0.9346,6.499314556,,,,,,,,,,,,,,,,,,,,,,,,,,,,,,,,,,,,,,,,,,,,,,,,,,,,,,,,,,,,,,,,,,,,,,,,,,,,,,,,,,,,,,,,,,,
,,,,,,,5ee25b060f0ccf35b31431af,23,2023-07-20_21h06.23.983,templeton2A_SD_practice,2020.2.10,Win32,60,,,,,,,,,,,,,,,,,,,,,,0.9422,6.499314556,,,,,,,,,,,,,,,,,,,,,,,,,,,,,,,,,,,,,,,,,,,,,,,,,,,,,,,,,,,,,,,,,,,,,,,,,,,,,,,,,,,,,,,,,,,
,,,,,,,5ee25b060f0ccf35b31431af,23,2023-07-20_21h06.23.983,templeton2A_SD_practice,2020.2.10,Win32,60,,,,,,,,,,,,,,,,,,,,,,0.9482,6.499314556,,,,,,,,,,,,,,,,,,,,,,,,,,,,,,,,,,,,,,,,,,,,,,,,,,,,,,,,,,,,,,,,,,,,,,,,,,,,,,,,,,,,,,,,,,,
,,,,,,,5ee25b060f0ccf35b31431af,23,2023-07-20_21h06.23.983,templeton2A_SD_practice,2020.2.10,Win32,60,,,,,,,,,,,,,,,,,,,,,,0.9575,6.499314556,,,,,,,,,,,,,,,,,,,,,,,,,,,,,,,,,,,,,,,,,,,,,,,,,,,,,,,,,,,,,,,,,,,,,,,,,,,,,,,,,,,,,,,,,,,
,,,,,,,5ee25b060f0ccf35b31431af,23,2023-07-20_21h06.23.983,templeton2A_SD_practice,2020.2.10,Win32,60,,,,,,,,,,,,,,,,,,,,,,0.9673,6.499314556,,,,,,,,,,,,,,,,,,,,,,,,,,,,,,,,,,,,,,,,,,,,,,,,,,,,,,,,,,,,,,,,,,,,,,,,,,,,,,,,,,,,,,,,,,,
,,,,,,,5ee25b060f0ccf35b31431af,23,2023-07-20_21h06.23.983,templeton2A_SD_practice,2020.2.10,Win32,60,,,,,,,,,,,,,,,,,,,,,,0.9763,6.499314556,,,,,,,,,,,,,,,,,,,,,,,,,,,,,,,,,,,,,,,,,,,,,,,,,,,,,,,,,,,,,,,,,,,,,,,,,,,,,,,,,,,,,,,,,,,
,,,,,,,5ee25b060f0ccf35b31431af,23,2023-07-20_21h06.23.983,templeton2A_SD_practice,2020.2.10,Win32,60,,,,,,,,,,,,,,,,,,,,,,0.9823,6.499314556,,,,,,,,,,,,,,,,,,,,,,,,,,,,,,,,,,,,,,,,,,,,,,,,,,,,,,,,,,,,,,,,,,,,,,,,,,,,,,,,,,,,,,,,,,,
,,,,,,,5ee25b060f0ccf35b31431af,23,2023-07-20_21h06.23.983,templeton2A_SD_practice,2020.2.10,Win32,60,,,,,,,,,,,,,,,,,,,,,,0.9915,6.499314556,,,,,,,,,,,,,,,,,,,,,,,,,,,,,,,,,,,,,,,,,,,,,,,,,,,,,,,,,,,,,,,,,,,,,,,,,,,,,,,,,,,,,,,,,,,
,,,,,,,5ee25b060f0ccf35b31431af,23,2023-07-20_21h06.23.983,templeton2A_SD_practice,2020.2.10,Win32,60,,,,,,,,,,,,,,,,,,,,,,0.9984,6.499314556,,,,,,,,,,,,,,,,,,,,,,,,,,,,,,,,,,,,,,,,,,,,,,,,,,,,,,,,,,,,,,,,,,,,,,,,,,,,,,,,,,,,,,,,,,,
,,,,,,,5ee25b060f0ccf35b31431af,23,2023-07-20_21h06.23.983,templeton2A_SD_practice,2020.2.10,Win32,60,,,,,,,,,,,,,,,,,,,,,,1.0058,6.499314556,,,,,,,,,,,,,,,,,,,,,,,,,,,,,,,,,,,,,,,,,,,,,,,,,,,,,,,,,,,,,,,,,,,,,,,,,,,,,,,,,,,,,,,,,,,
,,,,,,,5ee25b060f0ccf35b31431af,23,2023-07-20_21h06.23.983,templeton2A_SD_practice,2020.2.10,Win32,60,,,,,,,,,,,,,,,,,,,,,,1.0119,6.499314556,,,,,,,,,,,,,,,,,,,,,,,,,,,,,,,,,,,,,,,,,,,,,,,,,,,,,,,,,,,,,,,,,,,,,,,,,,,,,,,,,,,,,,,,,,,
,,,,,,,5ee25b060f0ccf35b31431af,23,2023-07-20_21h06.23.983,templeton2A_SD_practice,2020.2.10,Win32,60,,,,,,,,,,,,,,,,,,,,,,1.0202,6.499314556,,,,,,,,,,,,,,,,,,,,,,,,,,,,,,,,,,,,,,,,,,,,,,,,,,,,,,,,,,,,,,,,,,,,,,,,,,,,,,,,,,,,,,,,,,,
,,,,,,,5ee25b060f0ccf35b31431af,23,2023-07-20_21h06.23.983,templeton2A_SD_practice,2020.2.10,Win32,60,,,,,,,,,,,,,,,,,,,,,,1.0261,6.499314556,,,,,,,,,,,,,,,,,,,,,,,,,,,,,,,,,,,,,,,,,,,,,,,,,,,,,,,,,,,,,,,,,,,,,,,,,,,,,,,,,,,,,,,,,,,
,,,,,,,5ee25b060f0ccf35b31431af,23,2023-07-20_21h06.23.983,templeton2A_SD_practice,2020.2.10,Win32,60,,,,,,,,,,,,,,,,,,,,,,1.0354,6.499314556,,,,,,,,,,,,,,,,,,,,,,,,,,,,,,,,,,,,,,,,,,,,,,,,,,,,,,,,,,,,,,,,,,,,,,,,,,,,,,,,,,,,,,,,,,,
,,,,,,,5ee25b060f0ccf35b31431af,23,2023-07-20_21h06.23.983,templeton2A_SD_practice,2020.2.10,Win32,60,,,,,,,,,,,,,,,,,,,,,,1.0406,6.499314556,,,,,,,,,,,,,,,,,,,,,,,,,,,,,,,,,,,,,,,,,,,,,,,,,,,,,,,,,,,,,,,,,,,,,,,,,,,,,,,,,,,,,,,,,,,
,,,,,,,5ee25b060f0ccf35b31431af,23,2023-07-20_21h06.23.983,templeton2A_SD_practice,2020.2.10,Win32,60,,,,,,,,,,,,,,,,,,,,,,1.0487,6.499314556,,,,,,,,,,,,,,,,,,,,,,,,,,,,,,,,,,,,,,,,,,,,,,,,,,,,,,,,,,,,,,,,,,,,,,,,,,,,,,,,,,,,,,,,,,,
,,,,,,,5ee25b060f0ccf35b31431af,23,2023-07-20_21h06.23.983,templeton2A_SD_practice,2020.2.10,Win32,60,,,,,,,,,,,,,,,,,,,,,,1.0545,6.499314556,,,,,,,,,,,,,,,,,,,,,,,,,,,,,,,,,,,,,,,,,,,,,,,,,,,,,,,,,,,,,,,,,,,,,,,,,,,,,,,,,,,,,,,,,,,
,,,,,,,5ee25b060f0ccf35b31431af,23,2023-07-20_21h06.23.983,templeton2A_SD_practice,2020.2.10,Win32,60,,,,,,,,,,,,,,,,,,,,,,1.0606,6.499314556,,,,,,,,,,,,,,,,,,,,,,,,,,,,,,,,,,,,,,,,,,,,,,,,,,,,,,,,,,,,,,,,,,,,,,,,,,,,,,,,,,,,,,,,,,,
,,,,,,,5ee25b060f0ccf35b31431af,23,2023-07-20_21h06.23.983,templeton2A_SD_practice,2020.2.10,Win32,60,,,,,,,,,,,,,,,,,,,,,,1.067,6.499314556,,,,,,,,,,,,,,,,,,,,,,,,,,,,,,,,,,,,,,,,,,,,,,,,,,,,,,,,,,,,,,,,,,,,,,,,,,,,,,,,,,,,,,,,,,,
,,,,,,,5ee25b060f0ccf35b31431af,23,2023-07-20_21h06.23.983,templeton2A_SD_practice,2020.2.10,Win32,60,,,,,,,,,,,,,,,,,,,,,,1.0732,6.499314556,,,,,,,,,,,,,,,,,,,,,,,,,,,,,,,,,,,,,,,,,,,,,,,,,,,,,,,,,,,,,,,,,,,,,,,,,,,,,,,,,,,,,,,,,,,
,,,,,,,5ee25b060f0ccf35b31431af,23,2023-07-20_21h06.23.983,templeton2A_SD_practice,2020.2.10,Win32,60,,,,,,,,,,,,,,,,,,,,,,1.0802,6.499314556,,,,,,,,,,,,,,,,,,,,,,,,,,,,,,,,,,,,,,,,,,,,,,,,,,,,,,,,,,,,,,,,,,,,,,,,,,,,,,,,,,,,,,,,,,,
,,,,,,,5ee25b060f0ccf35b31431af,23,2023-07-20_21h06.23.983,templeton2A_SD_practice,2020.2.10,Win32,60,,,,,,,,,,,,,,,,,,,,,,1.0897,6.499314556,,,,,,,,,,,,,,,,,,,,,,,,,,,,,,,,,,,,,,,,,,,,,,,,,,,,,,,,,,,,,,,,,,,,,,,,,,,,,,,,,,,,,,,,,,,
,,,,,,,5ee25b060f0ccf35b31431af,23,2023-07-20_21h06.23.983,templeton2A_SD_practice,2020.2.10,Win32,60,,,,,,,,,,,,,,,,,,,,,,1.0961,6.499314556,,,,,,,,,,,,,,,,,,,,,,,,,,,,,,,,,,,,,,,,,,,,,,,,,,,,,,,,,,,,,,,,,,,,,,,,,,,,,,,,,,,,,,,,,,,
,,,,,,,5ee25b060f0ccf35b31431af,23,2023-07-20_21h06.23.983,templeton2A_SD_practice,2020.2.10,Win32,60,,,,,,,,,,,,,,,,,,,,,,1.1023,6.499314556,,,,,,,,,,,,,,,,,,,,,,,,,,,,,,,,,,,,,,,,,,,,,,,,,,,,,,,,,,,,,,,,,,,,,,,,,,,,,,,,,,,,,,,,,,,
,,,,,,,5ee25b060f0ccf35b31431af,23,2023-07-20_21h06.23.983,templeton2A_SD_practice,2020.2.10,Win32,60,,,,,,,,,,,,,,,,,,,,,,1.1086,6.499314556,,,,,,,,,,,,,,,,,,,,,,,,,,,,,,,,,,,,,,,,,,,,,,,,,,,,,,,,,,,,,,,,,,,,,,,,,,,,,,,,,,,,,,,,,,,
,,,,,,,5ee25b060f0ccf35b31431af,23,2023-07-20_21h06.23.983,templeton2A_SD_practice,2020.2.10,Win32,60,,,,,,,,,,,,,,,,,,,,,,1.1144,6.499314556,,,,,,,,,,,,,,,,,,,,,,,,,,,,,,,,,,,,,,,,,,,,,,,,,,,,,,,,,,,,,,,,,,,,,,,,,,,,,,,,,,,,,,,,,,,
,,,,,,,5ee25b060f0ccf35b31431af,23,2023-07-20_21h06.23.983,templeton2A_SD_practice,2020.2.10,Win32,60,,,,,,,,,,,,,,,,,,,,,,1.1236,6.499314556,,,,,,,,,,,,,,,,,,,,,,,,,,,,,,,,,,,,,,,,,,,,,,,,,,,,,,,,,,,,,,,,,,,,,,,,,,,,,,,,,,,,,,,,,,,
,,,,,,,5ee25b060f0ccf35b31431af,23,2023-07-20_21h06.23.983,templeton2A_SD_practice,2020.2.10,Win32,60,,,,,,,,,,,,,,,,,,,,,,1.1302,6.499314556,,,,,,,,,,,,,,,,,,,,,,,,,,,,,,,,,,,,,,,,,,,,,,,,,,,,,,,,,,,,,,,,,,,,,,,,,,,,,,,,,,,,,,,,,,,
,,,,,,,5ee25b060f0ccf35b31431af,23,2023-07-20_21h06.23.983,templeton2A_SD_practice,2020.2.10,Win32,60,,,,,,,,,,,,,,,,,,,,,,1.136,6.499314556,,,,,,,,,,,,,,,,,,,,,,,,,,,,,,,,,,,,,,,,,,,,,,,,,,,,,,,,,,,,,,,,,,,,,,,,,,,,,,,,,,,,,,,,,,,
,,,,,,,5ee25b060f0ccf35b31431af,23,2023-07-20_21h06.23.983,templeton2A_SD_practice,2020.2.10,Win32,60,,,,,,,,,,,,,,,,,,,,,,1.1435,6.499314556,,,,,,,,,,,,,,,,,,,,,,,,,,,,,,,,,,,,,,,,,,,,,,,,,,,,,,,,,,,,,,,,,,,,,,,,,,,,,,,,,,,,,,,,,,,
,,,,,,,5ee25b060f0ccf35b31431af,23,2023-07-20_21h06.23.983,templeton2A_SD_practice,2020.2.10,Win32,60,,,,,,,,,,,,,,,,,,,,,,1.1494,6.499314556,,,,,,,,,,,,,,,,,,,,,,,,,,,,,,,,,,,,,,,,,,,,,,,,,,,,,,,,,,,,,,,,,,,,,,,,,,,,,,,,,,,,,,,,,,,
,,,,,,,5ee25b060f0ccf35b31431af,23,2023-07-20_21h06.23.983,templeton2A_SD_practice,2020.2.10,Win32,60,,,,,,,,,,,,,,,,,,,,,,1.1575,6.499314556,,,,,,,,,,,,,,,,,,,,,,,,,,,,,,,,,,,,,,,,,,,,,,,,,,,,,,,,,,,,,,,,,,,,,,,,,,,,,,,,,,,,,,,,,,,
,,,,,,,5ee25b060f0ccf35b31431af,23,2023-07-20_21h06.23.983,templeton2A_SD_practice,2020.2.10,Win32,60,,,,,,,,,,,,,,,,,,,,,,1.1639,6.499314556,,,,,,,,,,,,,,,,,,,,,,,,,,,,,,,,,,,,,,,,,,,,,,,,,,,,,,,,,,,,,,,,,,,,,,,,,,,,,,,,,,,,,,,,,,,
,,,,,,,5ee25b060f0ccf35b31431af,23,2023-07-20_21h06.23.983,templeton2A_SD_practice,2020.2.10,Win32,60,,,,,,,,,,,,,,,,,,,,,,1.1712,6.499314556,,,,,,,,,,,,,,,,,,,,,,,,,,,,,,,,,,,,,,,,,,,,,,,,,,,,,,,,,,,,,,,,,,,,,,,,,,,,,,,,,,,,,,,,,,,
,,,,,,,5ee25b060f0ccf35b31431af,23,2023-07-20_21h06.23.983,templeton2A_SD_practice,2020.2.10,Win32,60,,,,,,,,,,,,,,,,,,,,,,1.1771,6.499314556,,,,,,,,,,,,,,,,,,,,,,,,,,,,,,,,,,,,,,,,,,,,,,,,,,,,,,,,,,,,,,,,,,,,,,,,,,,,,,,,,,,,,,,,,,,
,,,,,,,5ee25b060f0ccf35b31431af,23,2023-07-20_21h06.23.983,templeton2A_SD_practice,2020.2.10,Win32,60,,,,,,,,,,,,,,,,,,,,,,1.1843,6.499314556,,,,,,,,,,,,,,,,,,,,,,,,,,,,,,,,,,,,,,,,,,,,,,,,,,,,,,,,,,,,,,,,,,,,,,,,,,,,,,,,,,,,,,,,,,,
,,,,,,,5ee25b060f0ccf35b31431af,23,2023-07-20_21h06.23.983,templeton2A_SD_practice,2020.2.10,Win32,60,,,,,,,,,,,,,,,,,,,,,,1.1927,6.499314556,,,,,,,,,,,,,,,,,,,,,,,,,,,,,,,,,,,,,,,,,,,,,,,,,,,,,,,,,,,,,,,,,,,,,,,,,,,,,,,,,,,,,,,,,,,
,,,,,,,5ee25b060f0ccf35b31431af,23,2023-07-20_21h06.23.983,templeton2A_SD_practice,2020.2.10,Win32,60,,,,,,,,,,,,,,,,,,,,,,1.1987,6.499314556,,,,,,,,,,,,,,,,,,,,,,,,,,,,,,,,,,,,,,,,,,,,,,,,,,,,,,,,,,,,,,,,,,,,,,,,,,,,,,,,,,,,,,,,,,,
,,,,,,,5ee25b060f0ccf35b31431af,23,2023-07-20_21h06.23.983,templeton2A_SD_practice,2020.2.10,Win32,60,,,,,,,,,,,,,,,,,,,,,,1.2055,6.499314556,,,,,,,,,,,,,,,,,,,,,,,,,,,,,,,,,,,,,,,,,,,,,,,,,,,,,,,,,,,,,,,,,,,,,,,,,,,,,,,,,,,,,,,,,,,
,,,,,,,5ee25b060f0ccf35b31431af,23,2023-07-20_21h06.23.983,templeton2A_SD_practice,2020.2.10,Win32,60,,,,,,,,,,,,,,,,,,,,,,1.2124,6.499314556,,,,,,,,,,,,,,,,,,,,,,,,,,,,,,,,,,,,,,,,,,,,,,,,,,,,,,,,,,,,,,,,,,,,,,,,,,,,,,,,,,,,,,,,,,,
,,,,,,,5ee25b060f0ccf35b31431af,23,2023-07-20_21h06.23.983,templeton2A_SD_practice,2020.2.10,Win32,60,,,,,,,,,,,,,,,,,,,,,,1.2194,6.499314556,,,,,,,,,,,,,,,,,,,,,,,,,,,,,,,,,,,,,,,,,,,,,,,,,,,,,,,,,,,,,,,,,,,,,,,,,,,,,,,,,,,,,,,,,,,
,,,,,,,5ee25b060f0ccf35b31431af,23,2023-07-20_21h06.23.983,templeton2A_SD_practice,2020.2.10,Win32,60,,,,,,,,,,,,,,,,,,,,,,1.2283,6.499314556,,,,,,,,,,,,,,,,,,,,,,,,,,,,,,,,,,,,,,,,,,,,,,,,,,,,,,,,,,,,,,,,,,,,,,,,,,,,,,,,,,,,,,,,,,,
,,,,,,,5ee25b060f0ccf35b31431af,23,2023-07-20_21h06.23.983,templeton2A_SD_practice,2020.2.10,Win32,60,,,,,,,,,,,,,,,,,,,,,,1.2341,6.499314556,,,,,,,,,,,,,,,,,,,,,,,,,,,,,,,,,,,,,,,,,,,,,,,,,,,,,,,,,,,,,,,,,,,,,,,,,,,,,,,,,,,,,,,,,,,
,,,,,,,5ee25b060f0ccf35b31431af,23,2023-07-20_21h06.23.983,templeton2A_SD_practice,2020.2.10,Win32,60,,,,,,,,,,,,,,,,,,,,,,1.24,6.499314556,,,,,,,,,,,,,,,,,,,,,,,,,,,,,,,,,,,,,,,,,,,,,,,,,,,,,,,,,,,,,,,,,,,,,,,,,,,,,,,,,,,,,,,,,,,
,,,,,,,5ee25b060f0ccf35b31431af,23,2023-07-20_21h06.23.983,templeton2A_SD_practice,2020.2.10,Win32,60,,,,,,,,,,,,,,,,,,,,,,1.247,6.499314556,,,,,,,,,,,,,,,,,,,,,,,,,,,,,,,,,,,,,,,,,,,,,,,,,,,,,,,,,,,,,,,,,,,,,,,,,,,,,,,,,,,,,,,,,,,
,,,,,,,5ee25b060f0ccf35b31431af,23,2023-07-20_21h06.23.983,templeton2A_SD_practice,2020.2.10,Win32,60,,,,,,,,,,,,,,,,,,,,,,1.2562,6.499314556,,,,,,,,,,,,,,,,,,,,,,,,,,,,,,,,,,,,,,,,,,,,,,,,,,,,,,,,,,,,,,,,,,,,,,,,,,,,,,,,,,,,,,,,,,,
,,,,,,,5ee25b060f0ccf35b31431af,23,2023-07-20_21h06.23.983,templeton2A_SD_practice,2020.2.10,Win32,60,,,,,,,,,,,,,,,,,,,,,,1.2618,6.499314556,,,,,,,,,,,,,,,,,,,,,,,,,,,,,,,,,,,,,,,,,,,,,,,,,,,,,,,,,,,,,,,,,,,,,,,,,,,,,,,,,,,,,,,,,,,
,,,,,,,5ee25b060f0ccf35b31431af,23,2023-07-20_21h06.23.983,templeton2A_SD_practice,2020.2.10,Win32,60,,,,,,,,,,,,,,,,,,,,,,1.2685,6.499314556,,,,,,,,,,,,,,,,,,,,,,,,,,,,,,,,,,,,,,,,,,,,,,,,,,,,,,,,,,,,,,,,,,,,,,,,,,,,,,,,,,,,,,,,,,,
,,,,,,,5ee25b060f0ccf35b31431af,23,2023-07-20_21h06.23.983,templeton2A_SD_practice,2020.2.10,Win32,60,,,,,,,,,,,,,,,,,,,,,,1.2744,6.499314556,,,,,,,,,,,,,,,,,,,,,,,,,,,,,,,,,,,,,,,,,,,,,,,,,,,,,,,,,,,,,,,,,,,,,,,,,,,,,,,,,,,,,,,,,,,
,,,,,,,5ee25b060f0ccf35b31431af,23,2023-07-20_21h06.23.983,templeton2A_SD_practice,2020.2.10,Win32,60,,,,,,,,,,,,,,,,,,,,,,1.2819,6.499314556,,,,,,,,,,,,,,,,,,,,,,,,,,,,,,,,,,,,,,,,,,,,,,,,,,,,,,,,,,,,,,,,,,,,,,,,,,,,,,,,,,,,,,,,,,,
,,,,,,,5ee25b060f0ccf35b31431af,23,2023-07-20_21h06.23.983,templeton2A_SD_practice,2020.2.10,Win32,60,,,,,,,,,,,,,,,,,,,,,,1.2898,6.499314556,,,,,,,,,,,,,,,,,,,,,,,,,,,,,,,,,,,,,,,,,,,,,,,,,,,,,,,,,,,,,,,,,,,,,,,,,,,,,,,,,,,,,,,,,,,
,,,,,,,5ee25b060f0ccf35b31431af,23,2023-07-20_21h06.23.983,templeton2A_SD_practice,2020.2.10,Win32,60,,,,,,,,,,,,,,,,,,,,,,1.2962,6.499314556,,,,,,,,,,,,,,,,,,,,,,,,,,,,,,,,,,,,,,,,,,,,,,,,,,,,,,,,,,,,,,,,,,,,,,,,,,,,,,,,,,,,,,,,,,,
,,,,,,,5ee25b060f0ccf35b31431af,23,2023-07-20_21h06.23.983,templeton2A_SD_practice,2020.2.10,Win32,60,,,,,,,,,,,,,,,,,,,,,,1.3031,6.499314556,,,,,,,,,,,,,,,,,,,,,,,,,,,,,,,,,,,,,,,,,,,,,,,,,,,,,,,,,,,,,,,,,,,,,,,,,,,,,,,,,,,,,,,,,,,
,,,,,,,5ee25b060f0ccf35b31431af,23,2023-07-20_21h06.23.983,templeton2A_SD_practice,2020.2.10,Win32,60,,,,,,,,,,,,,,,,,,,,,,1.3098,6.499314556,,,,,,,,,,,,,,,,,,,,,,,,,,,,,,,,,,,,,,,,,,,,,,,,,,,,,,,,,,,,,,,,,,,,,,,,,,,,,,,,,,,,,,,,,,,
,,,,,,,5ee25b060f0ccf35b31431af,23,2023-07-20_21h06.23.983,templeton2A_SD_practice,2020.2.10,Win32,60,,,,,,,,,,,,,,,,,,,,,,1.3161,6.499314556,,,,,,,,,,,,,,,,,,,,,,,,,,,,,,,,,,,,,,,,,,,,,,,,,,,,,,,,,,,,,,,,,,,,,,,,,,,,,,,,,,,,,,,,,,,
,,,,,,,5ee25b060f0ccf35b31431af,23,2023-07-20_21h06.23.983,templeton2A_SD_practice,2020.2.10,Win32,60,,,,,,,,,,,,,,,,,,,,,,1.3233,6.499314556,,,,,,,,,,,,,,,,,,,,,,,,,,,,,,,,,,,,,,,,,,,,,,,,,,,,,,,,,,,,,,,,,,,,,,,,,,,,,,,,,,,,,,,,,,,
,,,,,,,5ee25b060f0ccf35b31431af,23,2023-07-20_21h06.23.983,templeton2A_SD_practice,2020.2.10,Win32,60,,,,,,,,,,,,,,,,,,,,,,1.3307,6.499314556,,,,,,,,,,,,,,,,,,,,,,,,,,,,,,,,,,,,,,,,,,,,,,,,,,,,,,,,,,,,,,,,,,,,,,,,,,,,,,,,,,,,,,,,,,,
,,,,,,,5ee25b060f0ccf35b31431af,23,2023-07-20_21h06.23.983,templeton2A_SD_practice,2020.2.10,Win32,60,,,,,,,,,,,,,,,,,,,,,,1.3384,6.499314556,,,,,,,,,,,,,,,,,,,,,,,,,,,,,,,,,,,,,,,,,,,,,,,,,,,,,,,,,,,,,,,,,,,,,,,,,,,,,,,,,,,,,,,,,,,
,,,,,,,5ee25b060f0ccf35b31431af,23,2023-07-20_21h06.23.983,templeton2A_SD_practice,2020.2.10,Win32,60,,,,,,,,,,,,,,,,,,,,,,1.3521,6.499314556,,,,,,,,,,,,,,,,,,,,,,,,,,,,,,,,,,,,,,,,,,,,,,,,,,,,,,,,,,,,,,,,,,,,,,,,,,,,,,,,,,,,,,,,,,,
,,,,,,,5ee25b060f0ccf35b31431af,23,2023-07-20_21h06.23.983,templeton2A_SD_practice,2020.2.10,Win32,60,,,,,,,,,,,,,,,,,,,,,,1.3585,6.499314556,,,,,,,,,,,,,,,,,,,,,,,,,,,,,,,,,,,,,,,,,,,,,,,,,,,,,,,,,,,,,,,,,,,,,,,,,,,,,,,,,,,,,,,,,,,
,,,,,,,5ee25b060f0ccf35b31431af,23,2023-07-20_21h06.23.983,templeton2A_SD_practice,2020.2.10,Win32,60,,,,,,,,,,,,,,,,,,,,,,1.367,6.499314556,,,,,,,,,,,,,,,,,,,,,,,,,,,,,,,,,,,,,,,,,,,,,,,,,,,,,,,,,,,,,,,,,,,,,,,,,,,,,,,,,,,,,,,,,,,
,,,,,,,5ee25b060f0ccf35b31431af,23,2023-07-20_21h06.23.983,templeton2A_SD_practice,2020.2.10,Win32,60,,,,,,,,,,,,,,,,,,,,,,1.3725,6.499314556,,,,,,,,,,,,,,,,,,,,,,,,,,,,,,,,,,,,,,,,,,,,,,,,,,,,,,,,,,,,,,,,,,,,,,,,,,,,,,,,,,,,,,,,,,,
,,,,,,,5ee25b060f0ccf35b31431af,23,2023-07-20_21h06.23.983,templeton2A_SD_practice,2020.2.10,Win32,60,,,,,,,,,,,,,,,,,,,,,,1.3806,6.499314556,,,,,,,,,,,,,,,,,,,,,,,,,,,,,,,,,,,,,,,,,,,,,,,,,,,,,,,,,,,,,,,,,,,,,,,,,,,,,,,,,,,,,,,,,,,
,,,,,,,5ee25b060f0ccf35b31431af,23,2023-07-20_21h06.23.983,templeton2A_SD_practice,2020.2.10,Win32,60,,,,,,,,,,,,,,,,,,,,,,1.386,6.499314556,,,,,,,,,,,,,,,,,,,,,,,,,,,,,,,,,,,,,,,,,,,,,,,,,,,,,,,,,,,,,,,,,,,,,,,,,,,,,,,,,,,,,,,,,,,
,,,,,,,5ee25b060f0ccf35b31431af,23,2023-07-20_21h06.23.983,templeton2A_SD_practice,2020.2.10,Win32,60,,,,,,,,,,,,,,,,,,,,,,1.3956,6.499314556,,,,,,,,,,,,,,,,,,,,,,,,,,,,,,,,,,,,,,,,,,,,,,,,,,,,,,,,,,,,,,,,,,,,,,,,,,,,,,,,,,,,,,,,,,,
,,,,,,,5ee25b060f0ccf35b31431af,23,2023-07-20_21h06.23.983,templeton2A_SD_practice,2020.2.10,Win32,60,,,,,,,,,,,,,,,,,,,,,,1.4019,6.499314556,,,,,,,,,,,,,,,,,,,,,,,,,,,,,,,,,,,,,,,,,,,,,,,,,,,,,,,,,,,,,,,,,,,,,,,,,,,,,,,,,,,,,,,,,,,
,,,,,,,5ee25b060f0ccf35b31431af,23,2023-07-20_21h06.23.983,templeton2A_SD_practice,2020.2.10,Win32,60,,,,,,,,,,,,,,,,,,,,,,1.4095,6.499314556,,,,,,,,,,,,,,,,,,,,,,,,,,,,,,,,,,,,,,,,,,,,,,,,,,,,,,,,,,,,,,,,,,,,,,,,,,,,,,,,,,,,,,,,,,,
,,,,,,,5ee25b060f0ccf35b31431af,23,2023-07-20_21h06.23.983,templeton2A_SD_practice,2020.2.10,Win32,60,,,,,,,,,,,,,,,,,,,,,,1.4151,6.499314556,,,,,,,,,,,,,,,,,,,,,,,,,,,,,,,,,,,,,,,,,,,,,,,,,,,,,,,,,,,,,,,,,,,,,,,,,,,,,,,,,,,,,,,,,,,
,,,,,,,5ee25b060f0ccf35b31431af,23,2023-07-20_21h06.23.983,templeton2A_SD_practice,2020.2.10,Win32,60,,,,,,,,,,,,,,,,,,,,,,1.4228,6.499314556,,,,,,,,,,,,,,,,,,,,,,,,,,,,,,,,,,,,,,,,,,,,,,,,,,,,,,,,,,,,,,,,,,,,,,,,,,,,,,,,,,,,,,,,,,,
,,,,,,,5ee25b060f0ccf35b31431af,23,2023-07-20_21h06.23.983,templeton2A_SD_practice,2020.2.10,Win32,60,,,,,,,,,,,,,,,,,,,,,,1.4317,6.499314556,,,,,,,,,,,,,,,,,,,,,,,,,,,,,,,,,,,,,,,,,,,,,,,,,,,,,,,,,,,,,,,,,,,,,,,,,,,,,,,,,,,,,,,,,,,
,,,,,,,5ee25b060f0ccf35b31431af,23,2023-07-20_21h06.23.983,templeton2A_SD_practice,2020.2.10,Win32,60,,,,,,,,,,,,,,,,,,,,,,1.4371,6.499314556,,,,,,,,,,,,,,,,,,,,,,,,,,,,,,,,,,,,,,,,,,,,,,,,,,,,,,,,,,,,,,,,,,,,,,,,,,,,,,,,,,,,,,,,,,,
,,,,,,,5ee25b060f0ccf35b31431af,23,2023-07-20_21h06.23.983,templeton2A_SD_practice,2020.2.10,Win32,60,,,,,,,,,,,,,,,,,,,,,,1.4448,6.499314556,,,,,,,,,,,,,,,,,,,,,,,,,,,,,,,,,,,,,,,,,,,,,,,,,,,,,,,,,,,,,,,,,,,,,,,,,,,,,,,,,,,,,,,,,,,
,,,,,,,5ee25b060f0ccf35b31431af,23,2023-07-20_21h06.23.983,templeton2A_SD_practice,2020.2.10,Win32,60,,,,,,,,,,,,,,,,,,,,,,1.45,6.499314556,,,,,,,,,,,,,,,,,,,,,,,,,,,,,,,,,,,,,,,,,,,,,,,,,,,,,,,,,,,,,,,,,,,,,,,,,,,,,,,,,,,,,,,,,,,
,,,,,,,5ee25b060f0ccf35b31431af,23,2023-07-20_21h06.23.983,templeton2A_SD_practice,2020.2.10,Win32,60,,,,,,,,,,,,,,,,,,,,,,1.4586,6.499314556,,,,,,,,,,,,,,,,,,,,,,,,,,,,,,,,,,,,,,,,,,,,,,,,,,,,,,,,,,,,,,,,,,,,,,,,,,,,,,,,,,,,,,,,,,,
,,,,,,,5ee25b060f0ccf35b31431af,23,2023-07-20_21h06.23.983,templeton2A_SD_practice,2020.2.10,Win32,60,,,,,,,,,,,,,,,,,,,,,,1.4666,6.499314556,,,,,,,,,,,,,,,,,,,,,,,,,,,,,,,,,,,,,,,,,,,,,,,,,,,,,,,,,,,,,,,,,,,,,,,,,,,,,,,,,,,,,,,,,,,
,,,,,,,5ee25b060f0ccf35b31431af,23,2023-07-20_21h06.23.983,templeton2A_SD_practice,2020.2.10,Win32,60,,,,,,,,,,,,,,,,,,,,,,1.4723,6.499314556,,,,,,,,,,,,,,,,,,,,,,,,,,,,,,,,,,,,,,,,,,,,,,,,,,,,,,,,,,,,,,,,,,,,,,,,,,,,,,,,,,,,,,,,,,,
,,,,,,,5ee25b060f0ccf35b31431af,23,2023-07-20_21h06.23.983,templeton2A_SD_practice,2020.2.10,Win32,60,,,,,,,,,,,,,,,,,,,,,,1.4801,6.499314556,,,,,,,,,,,,,,,,,,,,,,,,,,,,,,,,,,,,,,,,,,,,,,,,,,,,,,,,,,,,,,,,,,,,,,,,,,,,,,,,,,,,,,,,,,,
,,,,,,,5ee25b060f0ccf35b31431af,23,2023-07-20_21h06.23.983,templeton2A_SD_practice,2020.2.10,Win32,60,,,,,,,,,,,,,,,,,,,,,,1.4856,6.499314556,,,,,,,,,,,,,,,,,,,,,,,,,,,,,,,,,,,,,,,,,,,,,,,,,,,,,,,,,,,,,,,,,,,,,,,,,,,,,,,,,,,,,,,,,,,
,,,,,,,5ee25b060f0ccf35b31431af,23,2023-07-20_21h06.23.983,templeton2A_SD_practice,2020.2.10,Win32,60,,,,,,,,,,,,,,,,,,,,,,1.4947,6.499314556,,,,,,,,,,,,,,,,,,,,,,,,,,,,,,,,,,,,,,,,,,,,,,,,,,,,,,,,,,,,,,,,,,,,,,,,,,,,,,,,,,,,,,,,,,,
,,,,,,,5ee25b060f0ccf35b31431af,23,2023-07-20_21h06.23.983,templeton2A_SD_practice,2020.2.10,Win32,60,,,,,,,,,,,,,,,,,,,,,,1.5001,6.499314556,,,,,,,,,,,,,,,,,,,,,,,,,,,,,,,,,,,,,,,,,,,,,,,,,,,,,,,,,,,,,,,,,,,,,,,,,,,,,,,,,,,,,,,,,,,
,,,,,,,5ee25b060f0ccf35b31431af,23,2023-07-20_21h06.23.983,templeton2A_SD_practice,2020.2.10,Win32,60,,,,,,,,,,,,,,,,,,,,,,1.5055,6.499314556,,,,,,,,,,,,,,,,,,,,,,,,,,,,,,,,,,,,,,,,,,,,,,,,,,,,,,,,,,,,,,,,,,,,,,,,,,,,,,,,,,,,,,,,,,,
,,,,,,,5ee25b060f0ccf35b31431af,23,2023-07-20_21h06.23.983,templeton2A_SD_practice,2020.2.10,Win32,60,,,,,,,,,,,,,,,,,,,,,,1.5111,6.499314556,,,,,,,,,,,,,,,,,,,,,,,,,,,,,,,,,,,,,,,,,,,,,,,,,,,,,,,,,,,,,,,,,,,,,,,,,,,,,,,,,,,,,,,,,,,
,,,,,,,5ee25b060f0ccf35b31431af,23,2023-07-20_21h06.23.983,templeton2A_SD_practice,2020.2.10,Win32,60,,,,,,,,,,,,,,,,,,,,,,1.5181,6.499314556,,,,,,,,,,,,,,,,,,,,,,,,,,,,,,,,,,,,,,,,,,,,,,,,,,,,,,,,,,,,,,,,,,,,,,,,,,,,,,,,,,,,,,,,,,,
,,,,,,,5ee25b060f0ccf35b31431af,23,2023-07-20_21h06.23.983,templeton2A_SD_practice,2020.2.10,Win32,60,,,,,,,,,,,,,,,,,,,,,,1.5265,6.499314556,,,,,,,,,,,,,,,,,,,,,,,,,,,,,,,,,,,,,,,,,,,,,,,,,,,,,,,,,,,,,,,,,,,,,,,,,,,,,,,,,,,,,,,,,,,
,,,,,,,5ee25b060f0ccf35b31431af,23,2023-07-20_21h06.23.983,templeton2A_SD_practice,2020.2.10,Win32,60,,,,,,,,,,,,,,,,,,,,,,1.5328,6.499314556,,,,,,,,,,,,,,,,,,,,,,,,,,,,,,,,,,,,,,,,,,,,,,,,,,,,,,,,,,,,,,,,,,,,,,,,,,,,,,,,,,,,,,,,,,,
,,,,,,,5ee25b060f0ccf35b31431af,23,2023-07-20_21h06.23.983,templeton2A_SD_practice,2020.2.10,Win32,60,,,,,,,,,,,,,,,,,,,,,,1.5386,6.499314556,,,,,,,,,,,,,,,,,,,,,,,,,,,,,,,,,,,,,,,,,,,,,,,,,,,,,,,,,,,,,,,,,,,,,,,,,,,,,,,,,,,,,,,,,,,
,,,,,,,5ee25b060f0ccf35b31431af,23,2023-07-20_21h06.23.983,templeton2A_SD_practice,2020.2.10,Win32,60,,,,,,,,,,,,,,,,,,,,,,1.5459,6.499314556,,,,,,,,,,,,,,,,,,,,,,,,,,,,,,,,,,,,,,,,,,,,,,,,,,,,,,,,,,,,,,,,,,,,,,,,,,,,,,,,,,,,,,,,,,,
,,,,,,,5ee25b060f0ccf35b31431af,23,2023-07-20_21h06.23.983,templeton2A_SD_practice,2020.2.10,Win32,60,,,,,,,,,,,,,,,,,,,,,,1.5526,6.499314556,,,,,,,,,,,,,,,,,,,,,,,,,,,,,,,,,,,,,,,,,,,,,,,,,,,,,,,,,,,,,,,,,,,,,,,,,,,,,,,,,,,,,,,,,,,
,,,,,,,5ee25b060f0ccf35b31431af,23,2023-07-20_21h06.23.983,templeton2A_SD_practice,2020.2.10,Win32,60,,,,,,,,,,,,,,,,,,,,,,1.5602,6.499314556,,,,,,,,,,,,,,,,,,,,,,,,,,,,,,,,,,,,,,,,,,,,,,,,,,,,,,,,,,,,,,,,,,,,,,,,,,,,,,,,,,,,,,,,,,,
,,,,,,,5ee25b060f0ccf35b31431af,23,2023-07-20_21h06.23.983,templeton2A_SD_practice,2020.2.10,Win32,60,,,,,,,,,,,,,,,,,,,,,,1.5664,6.499314556,,,,,,,,,,,,,,,,,,,,,,,,,,,,,,,,,,,,,,,,,,,,,,,,,,,,,,,,,,,,,,,,,,,,,,,,,,,,,,,,,,,,,,,,,,,
,,,,,,,5ee25b060f0ccf35b31431af,23,2023-07-20_21h06.23.983,templeton2A_SD_practice,2020.2.10,Win32,60,,,,,,,,,,,,,,,,,,,,,,1.5733,6.499314556,,,,,,,,,,,,,,,,,,,,,,,,,,,,,,,,,,,,,,,,,,,,,,,,,,,,,,,,,,,,,,,,,,,,,,,,,,,,,,,,,,,,,,,,,,,
,,,,,,,5ee25b060f0ccf35b31431af,23,2023-07-20_21h06.23.983,templeton2A_SD_practice,2020.2.10,Win32,60,,,,,,,,,,,,,,,,,,,,,,1.5809,6.499314556,,,,,,,,,,,,,,,,,,,,,,,,,,,,,,,,,,,,,,,,,,,,,,,,,,,,,,,,,,,,,,,,,,,,,,,,,,,,,,,,,,,,,,,,,,,
,,,,,,,5ee25b060f0ccf35b31431af,23,2023-07-20_21h06.23.983,templeton2A_SD_practice,2020.2.10,Win32,60,,,,,,,,,,,,,,,,,,,,,,1.5875,6.499314556,,,,,,,,,,,,,,,,,,,,,,,,,,,,,,,,,,,,,,,,,,,,,,,,,,,,,,,,,,,,,,,,,,,,,,,,,,,,,,,,,,,,,,,,,,,
,,,,,,,5ee25b060f0ccf35b31431af,23,2023-07-20_21h06.23.983,templeton2A_SD_practice,2020.2.10,Win32,60,,,,,,,,,,,,,,,,,,,,,,1.595,6.499314556,,,,,,,,,,,,,,,,,,,,,,,,,,,,,,,,,,,,,,,,,,,,,,,,,,,,,,,,,,,,,,,,,,,,,,,,,,,,,,,,,,,,,,,,,,,
,,,,,,,5ee25b060f0ccf35b31431af,23,2023-07-20_21h06.23.983,templeton2A_SD_practice,2020.2.10,Win32,60,,,,,,,,,,,,,,,,,,,,,,1.6013,6.499314556,,,,,,,,,,,,,,,,,,,,,,,,,,,,,,,,,,,,,,,,,,,,,,,,,,,,,,,,,,,,,,,,,,,,,,,,,,,,,,,,,,,,,,,,,,,
,,,,,,,5ee25b060f0ccf35b31431af,23,2023-07-20_21h06.23.983,templeton2A_SD_practice,2020.2.10,Win32,60,,,,,,,,,,,,,,,,,,,,,,1.6082,6.499314556,,,,,,,,,,,,,,,,,,,,,,,,,,,,,,,,,,,,,,,,,,,,,,,,,,,,,,,,,,,,,,,,,,,,,,,,,,,,,,,,,,,,,,,,,,,
,,,,,,,5ee25b060f0ccf35b31431af,23,2023-07-20_21h06.23.983,templeton2A_SD_practice,2020.2.10,Win32,60,,,,,,,,,,,,,,,,,,,,,,1.6148,6.499314556,,,,,,,,,,,,,,,,,,,,,,,,,,,,,,,,,,,,,,,,,,,,,,,,,,,,,,,,,,,,,,,,,,,,,,,,,,,,,,,,,,,,,,,,,,,
,,,,,,,5ee25b060f0ccf35b31431af,23,2023-07-20_21h06.23.983,templeton2A_SD_practice,2020.2.10,Win32,60,,,,,,,,,,,,,,,,,,,,,,1.6226,6.499314556,,,,,,,,,,,,,,,,,,,,,,,,,,,,,,,,,,,,,,,,,,,,,,,,,,,,,,,,,,,,,,,,,,,,,,,,,,,,,,,,,,,,,,,,,,,
,,,,,,,5ee25b060f0ccf35b31431af,23,2023-07-20_21h06.23.983,templeton2A_SD_practice,2020.2.10,Win32,60,,,,,,,,,,,,,,,,,,,,,,1.6296,6.499314556,,,,,,,,,,,,,,,,,,,,,,,,,,,,,,,,,,,,,,,,,,,,,,,,,,,,,,,,,,,,,,,,,,,,,,,,,,,,,,,,,,,,,,,,,,,
,,,,,,,5ee25b060f0ccf35b31431af,23,2023-07-20_21h06.23.983,templeton2A_SD_practice,2020.2.10,Win32,60,,,,,,,,,,,,,,,,,,,,,,1.6357,6.499314556,,,,,,,,,,,,,,,,,,,,,,,,,,,,,,,,,,,,,,,,,,,,,,,,,,,,,,,,,,,,,,,,,,,,,,,,,,,,,,,,,,,,,,,,,,,
,,,,,,,5ee25b060f0ccf35b31431af,23,2023-07-20_21h06.23.983,templeton2A_SD_practice,2020.2.10,Win32,60,,,,,,,,,,,,,,,,,,,,,,1.6425,6.499314556,,,,,,,,,,,,,,,,,,,,,,,,,,,,,,,,,,,,,,,,,,,,,,,,,,,,,,,,,,,,,,,,,,,,,,,,,,,,,,,,,,,,,,,,,,,
,,,,,,,5ee25b060f0ccf35b31431af,23,2023-07-20_21h06.23.983,templeton2A_SD_practice,2020.2.10,Win32,60,,,,,,,,,,,,,,,,,,,,,,1.65,6.499314556,,,,,,,,,,,,,,,,,,,,,,,,,,,,,,,,,,,,,,,,,,,,,,,,,,,,,,,,,,,,,,,,,,,,,,,,,,,,,,,,,,,,,,,,,,,
,,,,,,,5ee25b060f0ccf35b31431af,23,2023-07-20_21h06.23.983,templeton2A_SD_practice,2020.2.10,Win32,60,,,,,,,,,,,,,,,,,,,,,,1.6577,6.499314556,,,,,,,,,,,,,,,,,,,,,,,,,,,,,,,,,,,,,,,,,,,,,,,,,,,,,,,,,,,,,,,,,,,,,,,,,,,,,,,,,,,,,,,,,,,
,,,,,,,5ee25b060f0ccf35b31431af,23,2023-07-20_21h06.23.983,templeton2A_SD_practice,2020.2.10,Win32,60,,,,,,,,,,,,,,,,,,,,,,1.6636,6.499314556,,,,,,,,,,,,,,,,,,,,,,,,,,,,,,,,,,,,,,,,,,,,,,,,,,,,,,,,,,,,,,,,,,,,,,,,,,,,,,,,,,,,,,,,,,,
,,,,,,,5ee25b060f0ccf35b31431af,23,2023-07-20_21h06.23.983,templeton2A_SD_practice,2020.2.10,Win32,60,,,,,,,,,,,,,,,,,,,,,,1.6712,6.499314556,,,,,,,,,,,,,,,,,,,,,,,,,,,,,,,,,,,,,,,,,,,,,,,,,,,,,,,,,,,,,,,,,,,,,,,,,,,,,,,,,,,,,,,,,,,
,,,,,,,5ee25b060f0ccf35b31431af,23,2023-07-20_21h06.23.983,templeton2A_SD_practice,2020.2.10,Win32,60,,,,,,,,,,,,,,,,,,,,,,1.6777,6.499314556,,,,,,,,,,,,,,,,,,,,,,,,,,,,,,,,,,,,,,,,,,,,,,,,,,,,,,,,,,,,,,,,,,,,,,,,,,,,,,,,,,,,,,,,,,,
,,,,,,,5ee25b060f0ccf35b31431af,23,2023-07-20_21h06.23.983,templeton2A_SD_practice,2020.2.10,Win32,60,,,,,,,,,,,,,,,,,,,,,,1.687,6.499314556,,,,,,,,,,,,,,,,,,,,,,,,,,,,,,,,,,,,,,,,,,,,,,,,,,,,,,,,,,,,,,,,,,,,,,,,,,,,,,,,,,,,,,,,,,,
,,,,,,,5ee25b060f0ccf35b31431af,23,2023-07-20_21h06.23.983,templeton2A_SD_practice,2020.2.10,Win32,60,,,,,,,,,,,,,,,,,,,,,,1.693,6.499314556,,,,,,,,,,,,,,,,,,,,,,,,,,,,,,,,,,,,,,,,,,,,,,,,,,,,,,,,,,,,,,,,,,,,,,,,,,,,,,,,,,,,,,,,,,,
,,,,,,,5ee25b060f0ccf35b31431af,23,2023-07-20_21h06.23.983,templeton2A_SD_practice,2020.2.10,Win32,60,,,,,,,,,,,,,,,,,,,,,,1.6989,6.499314556,,,,,,,,,,,,,,,,,,,,,,,,,,,,,,,,,,,,,,,,,,,,,,,,,,,,,,,,,,,,,,,,,,,,,,,,,,,,,,,,,,,,,,,,,,,
,,,,,,,5ee25b060f0ccf35b31431af,23,2023-07-20_21h06.23.983,templeton2A_SD_practice,2020.2.10,Win32,60,,,,,,,,,,,,,,,,,,,,,,1.7052,6.499314556,,,,,,,,,,,,,,,,,,,,,,,,,,,,,,,,,,,,,,,,,,,,,,,,,,,,,,,,,,,,,,,,,,,,,,,,,,,,,,,,,,,,,,,,,,,
,,,,,,,5ee25b060f0ccf35b31431af,23,2023-07-20_21h06.23.983,templeton2A_SD_practice,2020.2.10,Win32,60,,,,,,,,,,,,,,,,,,,,,,1.7121,6.499314556,,,,,,,,,,,,,,,,,,,,,,,,,,,,,,,,,,,,,,,,,,,,,,,,,,,,,,,,,,,,,,,,,,,,,,,,,,,,,,,,,,,,,,,,,,,
,,,,,,,5ee25b060f0ccf35b31431af,23,2023-07-20_21h06.23.983,templeton2A_SD_practice,2020.2.10,Win32,60,,,,,,,,,,,,,,,,,,,,,,1.722,6.499314556,,,,,,,,,,,,,,,,,,,,,,,,,,,,,,,,,,,,,,,,,,,,,,,,,,,,,,,,,,,,,,,,,,,,,,,,,,,,,,,,,,,,,,,,,,,
,,,,,,,5ee25b060f0ccf35b31431af,23,2023-07-20_21h06.23.983,templeton2A_SD_practice,2020.2.10,Win32,60,,,,,,,,,,,,,,,,,,,,,,1.7278,6.499314556,,,,,,,,,,,,,,,,,,,,,,,,,,,,,,,,,,,,,,,,,,,,,,,,,,,,,,,,,,,,,,,,,,,,,,,,,,,,,,,,,,,,,,,,,,,
,,,,,,,5ee25b060f0ccf35b31431af,23,2023-07-20_21h06.23.983,templeton2A_SD_practice,2020.2.10,Win32,60,,,,,,,,,,,,,,,,,,,,,,1.7342,6.499314556,,,,,,,,,,,,,,,,,,,,,,,,,,,,,,,,,,,,,,,,,,,,,,,,,,,,,,,,,,,,,,,,,,,,,,,,,,,,,,,,,,,,,,,,,,,
,,,,,,,5ee25b060f0ccf35b31431af,23,2023-07-20_21h06.23.983,templeton2A_SD_practice,2020.2.10,Win32,60,,,,,,,,,,,,,,,,,,,,,,1.7401,6.499314556,,,,,,,,,,,,,,,,,,,,,,,,,,,,,,,,,,,,,,,,,,,,,,,,,,,,,,,,,,,,,,,,,,,,,,,,,,,,,,,,,,,,,,,,,,,
,,,,,,,5ee25b060f0ccf35b31431af,23,2023-07-20_21h06.23.983,templeton2A_SD_practice,2020.2.10,Win32,60,,,,,,,,,,,,,,,,,,,,,,1.7474,6.499314556,,,,,,,,,,,,,,,,,,,,,,,,,,,,,,,,,,,,,,,,,,,,,,,,,,,,,,,,,,,,,,,,,,,,,,,,,,,,,,,,,,,,,,,,,,,
,,,,,,,5ee25b060f0ccf35b31431af,23,2023-07-20_21h06.23.983,templeton2A_SD_practice,2020.2.10,Win32,60,,,,,,,,,,,,,,,,,,,,,,1.7551,6.499314556,,,,,,,,,,,,,,,,,,,,,,,,,,,,,,,,,,,,,,,,,,,,,,,,,,,,,,,,,,,,,,,,,,,,,,,,,,,,,,,,,,,,,,,,,,,
,,,,,,,5ee25b060f0ccf35b31431af,23,2023-07-20_21h06.23.983,templeton2A_SD_practice,2020.2.10,Win32,60,,,,,,,,,,,,,,,,,,,,,,1.7607,6.499314556,,,,,,,,,,,,,,,,,,,,,,,,,,,,,,,,,,,,,,,,,,,,,,,,,,,,,,,,,,,,,,,,,,,,,,,,,,,,,,,,,,,,,,,,,,,
,,,,,,,5ee25b060f0ccf35b31431af,23,2023-07-20_21h06.23.983,templeton2A_SD_practice,2020.2.10,Win32,60,,,,,,,,,,,,,,,,,,,,,,1.7678,6.499314556,,,,,,,,,,,,,,,,,,,,,,,,,,,,,,,,,,,,,,,,,,,,,,,,,,,,,,,,,,,,,,,,,,,,,,,,,,,,,,,,,,,,,,,,,,,
,,,,,,,5ee25b060f0ccf35b31431af,23,2023-07-20_21h06.23.983,templeton2A_SD_practice,2020.2.10,Win32,60,,,,,,,,,,,,,,,,,,,,,,1.7753,6.499314556,,,,,,,,,,,,,,,,,,,,,,,,,,,,,,,,,,,,,,,,,,,,,,,,,,,,,,,,,,,,,,,,,,,,,,,,,,,,,,,,,,,,,,,,,,,
,,,,,,,5ee25b060f0ccf35b31431af,23,2023-07-20_21h06.23.983,templeton2A_SD_practice,2020.2.10,Win32,60,,,,,,,,,,,,,,,,,,,,,,1.7819,6.499314556,,,,,,,,,,,,,,,,,,,,,,,,,,,,,,,,,,,,,,,,,,,,,,,,,,,,,,,,,,,,,,,,,,,,,,,,,,,,,,,,,,,,,,,,,,,
,,,,,,,5ee25b060f0ccf35b31431af,23,2023-07-20_21h06.23.983,templeton2A_SD_practice,2020.2.10,Win32,60,,,,,,,,,,,,,,,,,,,,,,1.7886,6.499314556,,,,,,,,,,,,,,,,,,,,,,,,,,,,,,,,,,,,,,,,,,,,,,,,,,,,,,,,,,,,,,,,,,,,,,,,,,,,,,,,,,,,,,,,,,,
,,,,,,,5ee25b060f0ccf35b31431af,23,2023-07-20_21h06.23.983,templeton2A_SD_practice,2020.2.10,Win32,60,,,,,,,,,,,,,,,,,,,,,,1.7959,6.499314556,,,,,,,,,,,,,,,,,,,,,,,,,,,,,,,,,,,,,,,,,,,,,,,,,,,,,,,,,,,,,,,,,,,,,,,,,,,,,,,,,,,,,,,,,,,
,,,,,,,5ee25b060f0ccf35b31431af,23,2023-07-20_21h06.23.983,templeton2A_SD_practice,2020.2.10,Win32,60,,,,,,,,,,,,,,,,,,,,,,1.8027,6.499314556,,,,,,,,,,,,,,,,,,,,,,,,,,,,,,,,,,,,,,,,,,,,,,,,,,,,,,,,,,,,,,,,,,,,,,,,,,,,,,,,,,,,,,,,,,,
,,,,,,,5ee25b060f0ccf35b31431af,23,2023-07-20_21h06.23.983,templeton2A_SD_practice,2020.2.10,Win32,60,,,,,,,,,,,,,,,,,,,,,,1.8096,6.499314556,,,,,,,,,,,,,,,,,,,,,,,,,,,,,,,,,,,,,,,,,,,,,,,,,,,,,,,,,,,,,,,,,,,,,,,,,,,,,,,,,,,,,,,,,,,
,,,,,,,5ee25b060f0ccf35b31431af,23,2023-07-20_21h06.23.983,templeton2A_SD_practice,2020.2.10,Win32,60,,,,,,,,,,,,,,,,,,,,,,1.8169,6.499314556,,,,,,,,,,,,,,,,,,,,,,,,,,,,,,,,,,,,,,,,,,,,,,,,,,,,,,,,,,,,,,,,,,,,,,,,,,,,,,,,,,,,,,,,,,,
,,,,,,,5ee25b060f0ccf35b31431af,23,2023-07-20_21h06.23.983,templeton2A_SD_practice,2020.2.10,Win32,60,,,,,,,,,,,,,,,,,,,,,,1.8237,6.499314556,,,,,,,,,,,,,,,,,,,,,,,,,,,,,,,,,,,,,,,,,,,,,,,,,,,,,,,,,,,,,,,,,,,,,,,,,,,,,,,,,,,,,,,,,,,
,,,,,,,5ee25b060f0ccf35b31431af,23,2023-07-20_21h06.23.983,templeton2A_SD_practice,2020.2.10,Win32,60,,,,,,,,,,,,,,,,,,,,,,1.8298,6.499314556,,,,,,,,,,,,,,,,,,,,,,,,,,,,,,,,,,,,,,,,,,,,,,,,,,,,,,,,,,,,,,,,,,,,,,,,,,,,,,,,,,,,,,,,,,,
,,,,,,,5ee25b060f0ccf35b31431af,23,2023-07-20_21h06.23.983,templeton2A_SD_practice,2020.2.10,Win32,60,,,,,,,,,,,,,,,,,,,,,,1.8366,6.499314556,,,,,,,,,,,,,,,,,,,,,,,,,,,,,,,,,,,,,,,,,,,,,,,,,,,,,,,,,,,,,,,,,,,,,,,,,,,,,,,,,,,,,,,,,,,
,,,,,,,5ee25b060f0ccf35b31431af,23,2023-07-20_21h06.23.983,templeton2A_SD_practice,2020.2.10,Win32,60,,,,,,,,,,,,,,,,,,,,,,1.8439,6.499314556,,,,,,,,,,,,,,,,,,,,,,,,,,,,,,,,,,,,,,,,,,,,,,,,,,,,,,,,,,,,,,,,,,,,,,,,,,,,,,,,,,,,,,,,,,,
,,,,,,,5ee25b060f0ccf35b31431af,23,2023-07-20_21h06.23.983,templeton2A_SD_practice,2020.2.10,Win32,60,,,,,,,,,,,,,,,,,,,,,,1.8527,6.499314556,,,,,,,,,,,,,,,,,,,,,,,,,,,,,,,,,,,,,,,,,,,,,,,,,,,,,,,,,,,,,,,,,,,,,,,,,,,,,,,,,,,,,,,,,,,
,,,,,,,5ee25b060f0ccf35b31431af,23,2023-07-20_21h06.23.983,templeton2A_SD_practice,2020.2.10,Win32,60,,,,,,,,,,,,,,,,,,,,,,1.8588,6.499314556,,,,,,,,,,,,,,,,,,,,,,,,,,,,,,,,,,,,,,,,,,,,,,,,,,,,,,,,,,,,,,,,,,,,,,,,,,,,,,,,,,,,,,,,,,,
,,,,,,,5ee25b060f0ccf35b31431af,23,2023-07-20_21h06.23.983,templeton2A_SD_practice,2020.2.10,Win32,60,,,,,,,,,,,,,,,,,,,,,,1.8652,6.499314556,,,,,,,,,,,,,,,,,,,,,,,,,,,,,,,,,,,,,,,,,,,,,,,,,,,,,,,,,,,,,,,,,,,,,,,,,,,,,,,,,,,,,,,,,,,
,,,,,,,5ee25b060f0ccf35b31431af,23,2023-07-20_21h06.23.983,templeton2A_SD_practice,2020.2.10,Win32,60,,,,,,,,,,,,,,,,,,,,,,1.8721,6.499314556,,,,,,,,,,,,,,,,,,,,,,,,,,,,,,,,,,,,,,,,,,,,,,,,,,,,,,,,,,,,,,,,,,,,,,,,,,,,,,,,,,,,,,,,,,,
,,,,,,,5ee25b060f0ccf35b31431af,23,2023-07-20_21h06.23.983,templeton2A_SD_practice,2020.2.10,Win32,60,,,,,,,,,,,,,,,,,,,,,,1.8787,6.499314556,,,,,,,,,,,,,,,,,,,,,,,,,,,,,,,,,,,,,,,,,,,,,,,,,,,,,,,,,,,,,,,,,,,,,,,,,,,,,,,,,,,,,,,,,,,
,,,,,,,5ee25b060f0ccf35b31431af,23,2023-07-20_21h06.23.983,templeton2A_SD_practice,2020.2.10,Win32,60,,,,,,,,,,,,,,,,,,,,,,1.8858,6.499314556,,,,,,,,,,,,,,,,,,,,,,,,,,,,,,,,,,,,,,,,,,,,,,,,,,,,,,,,,,,,,,,,,,,,,,,,,,,,,,,,,,,,,,,,,,,
,,,,,,,5ee25b060f0ccf35b31431af,23,2023-07-20_21h06.23.983,templeton2A_SD_practice,2020.2.10,Win32,60,,,,,,,,,,,,,,,,,,,,,,1.8941,6.499314556,,,,,,,,,,,,,,,,,,,,,,,,,,,,,,,,,,,,,,,,,,,,,,,,,,,,,,,,,,,,,,,,,,,,,,,,,,,,,,,,,,,,,,,,,,,
,,,,,,,5ee25b060f0ccf35b31431af,23,2023-07-20_21h06.23.983,templeton2A_SD_practice,2020.2.10,Win32,60,,,,,,,,,,,,,,,,,,,,,,1.8998,6.499314556,,,,,,,,,,,,,,,,,,,,,,,,,,,,,,,,,,,,,,,,,,,,,,,,,,,,,,,,,,,,,,,,,,,,,,,,,,,,,,,,,,,,,,,,,,,
,,,,,,,5ee25b060f0ccf35b31431af,23,2023-07-20_21h06.23.983,templeton2A_SD_practice,2020.2.10,Win32,60,,,,,,,,,,,,,,,,,,,,,,1.9067,6.499314556,,,,,,,,,,,,,,,,,,,,,,,,,,,,,,,,,,,,,,,,,,,,,,,,,,,,,,,,,,,,,,,,,,,,,,,,,,,,,,,,,,,,,,,,,,,
,,,,,,,5ee25b060f0ccf35b31431af,23,2023-07-20_21h06.23.983,templeton2A_SD_practice,2020.2.10,Win32,60,,,,,,,,,,,,,,,,,,,,,,1.9138,6.499314556,,,,,,,,,,,,,,,,,,,,,,,,,,,,,,,,,,,,,,,,,,,,,,,,,,,,,,,,,,,,,,,,,,,,,,,,,,,,,,,,,,,,,,,,,,,
,,,,,,,5ee25b060f0ccf35b31431af,23,2023-07-20_21h06.23.983,templeton2A_SD_practice,2020.2.10,Win32,60,,,,,,,,,,,,,,,,,,,,,,1.9218,6.499314556,,,,,,,,,,,,,,,,,,,,,,,,,,,,,,,,,,,,,,,,,,,,,,,,,,,,,,,,,,,,,,,,,,,,,,,,,,,,,,,,,,,,,,,,,,,
,,,,,,,5ee25b060f0ccf35b31431af,23,2023-07-20_21h06.23.983,templeton2A_SD_practice,2020.2.10,Win32,60,,,,,,,,,,,,,,,,,,,,,,1.9275,6.499314556,,,,,,,,,,,,,,,,,,,,,,,,,,,,,,,,,,,,,,,,,,,,,,,,,,,,,,,,,,,,,,,,,,,,,,,,,,,,,,,,,,,,,,,,,,,
,,,,,,,5ee25b060f0ccf35b31431af,23,2023-07-20_21h06.23.983,templeton2A_SD_practice,2020.2.10,Win32,60,,,,,,,,,,,,,,,,,,,,,,1.9345,6.499314556,,,,,,,,,,,,,,,,,,,,,,,,,,,,,,,,,,,,,,,,,,,,,,,,,,,,,,,,,,,,,,,,,,,,,,,,,,,,,,,,,,,,,,,,,,,
,,,,,,,5ee25b060f0ccf35b31431af,23,2023-07-20_21h06.23.983,templeton2A_SD_practice,2020.2.10,Win32,60,,,,,,,,,,,,,,,,,,,,,,1.942,6.499314556,,,,,,,,,,,,,,,,,,,,,,,,,,,,,,,,,,,,,,,,,,,,,,,,,,,,,,,,,,,,,,,,,,,,,,,,,,,,,,,,,,,,,,,,,,,
,,,,,,,5ee25b060f0ccf35b31431af,23,2023-07-20_21h06.23.983,templeton2A_SD_practice,2020.2.10,Win32,60,,,,,,,,,,,,,,,,,,,,,,1.9513,6.499314556,,,,,,,,,,,,,,,,,,,,,,,,,,,,,,,,,,,,,,,,,,,,,,,,,,,,,,,,,,,,,,,,,,,,,,,,,,,,,,,,,,,,,,,,,,,
,,,,,,,5ee25b060f0ccf35b31431af,23,2023-07-20_21h06.23.983,templeton2A_SD_practice,2020.2.10,Win32,60,,,,,,,,,,,,,,,,,,,,,,1.9569,6.499314556,,,,,,,,,,,,,,,,,,,,,,,,,,,,,,,,,,,,,,,,,,,,,,,,,,,,,,,,,,,,,,,,,,,,,,,,,,,,,,,,,,,,,,,,,,,
,,,,,,,5ee25b060f0ccf35b31431af,23,2023-07-20_21h06.23.983,templeton2A_SD_practice,2020.2.10,Win32,60,,,,,,,,,,,,,,,,,,,,,,1.9626,6.499314556,,,,,,,,,,,,,,,,,,,,,,,,,,,,,,,,,,,,,,,,,,,,,,,,,,,,,,,,,,,,,,,,,,,,,,,,,,,,,,,,,,,,,,,,,,,
,,,,,,,5ee25b060f0ccf35b31431af,23,2023-07-20_21h06.23.983,templeton2A_SD_practice,2020.2.10,Win32,60,,,,,,,,,,,,,,,,,,,,,,1.969,6.499314556,,,,,,,,,,,,,,,,,,,,,,,,,,,,,,,,,,,,,,,,,,,,,,,,,,,,,,,,,,,,,,,,,,,,,,,,,,,,,,,,,,,,,,,,,,,
,,,,,,,5ee25b060f0ccf35b31431af,23,2023-07-20_21h06.23.983,templeton2A_SD_practice,2020.2.10,Win32,60,,,,,,,,,,,,,,,,,,,,,,1.9761,6.499314556,,,,,,,,,,,,,,,,,,,,,,,,,,,,,,,,,,,,,,,,,,,,,,,,,,,,,,,,,,,,,,,,,,,,,,,,,,,,,,,,,,,,,,,,,,,
,,,,,,,5ee25b060f0ccf35b31431af,23,2023-07-20_21h06.23.983,templeton2A_SD_practice,2020.2.10,Win32,60,,,,,,,,,,,,,,,,,,,,,,1.9833,6.499314556,,,,,,,,,,,,,,,,,,,,,,,,,,,,,,,,,,,,,,,,,,,,,,,,,,,,,,,,,,,,,,,,,,,,,,,,,,,,,,,,,,,,,,,,,,,
,,,,,,,5ee25b060f0ccf35b31431af,23,2023-07-20_21h06.23.983,templeton2A_SD_practice,2020.2.10,Win32,60,,,,,,,,,,,,,,,,,,,,,,1.9901,6.499314556,,,,,,,,,,,,,,,,,,,,,,,,,,,,,,,,,,,,,,,,,,,,,,,,,,,,,,,,,,,,,,,,,,,,,,,,,,,,,,,,,,,,,,,,,,,
,,,,,,,5ee25b060f0ccf35b31431af,23,2023-07-20_21h06.23.983,templeton2A_SD_practice,2020.2.10,Win32,60,,,,,,,,,,,,,,,,,,,,,,1.9971,6.499314556,,,,,,,,,,,,,,,,,,,,,,,,,,,,,,,,,,,,,,,,,,,,,,,,,,,,,,,,,,,,,,,,,,,,,,,,,,,,,,,,,,,,,,,,,,,
,,,,,,,5ee25b060f0ccf35b31431af,23,2023-07-20_21h06.23.983,templeton2A_SD_practice,2020.2.10,Win32,60,,,,,,,,,,,,,,,,,,,,,,2.004,6.499314556,,,,,,,,,,,,,,,,,,,,,,,,,,,,,,,,,,,,,,,,,,,,,,,,,,,,,,,,,,,,,,,,,,,,,,,,,,,,,,,,,,,,,,,,,,,
,,,,,,,5ee25b060f0ccf35b31431af,23,2023-07-20_21h06.23.983,templeton2A_SD_practice,2020.2.10,Win32,60,,,,,,,,,,,,,,,,,,,,,,2.0107,6.499314556,,,,,,,,,,,,,,,,,,,,,,,,,,,,,,,,,,,,,,,,,,,,,,,,,,,,,,,,,,,,,,,,,,,,,,,,,,,,,,,,,,,,,,,,,,,
,,,,,,,5ee25b060f0ccf35b31431af,23,2023-07-20_21h06.23.983,templeton2A_SD_practice,2020.2.10,Win32,60,,,,,,,,,,,,,,,,,,,,,,2.0192,6.499314556,,,,,,,,,,,,,,,,,,,,,,,,,,,,,,,,,,,,,,,,,,,,,,,,,,,,,,,,,,,,,,,,,,,,,,,,,,,,,,,,,,,,,,,,,,,
,,,,,,,5ee25b060f0ccf35b31431af,23,2023-07-20_21h06.23.983,templeton2A_SD_practice,2020.2.10,Win32,60,,,,,,,,,,,,,,,,,,,,,,2.0252,6.499314556,,,,,,,,,,,,,,,,,,,,,,,,,,,,,,,,,,,,,,,,,,,,,,,,,,,,,,,,,,,,,,,,,,,,,,,,,,,,,,,,,,,,,,,,,,,
,,,,,,,5ee25b060f0ccf35b31431af,23,2023-07-20_21h06.23.983,templeton2A_SD_practice,2020.2.10,Win32,60,,,,,,,,,,,,,,,,,,,,,,2.0322,6.499314556,,,,,,,,,,,,,,,,,,,,,,,,,,,,,,,,,,,,,,,,,,,,,,,,,,,,,,,,,,,,,,,,,,,,,,,,,,,,,,,,,,,,,,,,,,,
,,,,,,,5ee25b060f0ccf35b31431af,23,2023-07-20_21h06.23.983,templeton2A_SD_practice,2020.2.10,Win32,60,,,,,,,,,,,,,,,,,,,,,,2.0387,6.499314556,,,,,,,,,,,,,,,,,,,,,,,,,,,,,,,,,,,,,,,,,,,,,,,,,,,,,,,,,,,,,,,,,,,,,,,,,,,,,,,,,,,,,,,,,,,
,,,,,,,5ee25b060f0ccf35b31431af,23,2023-07-20_21h06.23.983,templeton2A_SD_practice,2020.2.10,Win32,60,,,,,,,,,,,,,,,,,,,,,,2.0455,6.499314556,,,,,,,,,,,,,,,,,,,,,,,,,,,,,,,,,,,,,,,,,,,,,,,,,,,,,,,,,,,,,,,,,,,,,,,,,,,,,,,,,,,,,,,,,,,
,,,,,,,5ee25b060f0ccf35b31431af,23,2023-07-20_21h06.23.983,templeton2A_SD_practice,2020.2.10,Win32,60,,,,,,,,,,,,,,,,,,,,,,2.0532,6.499314556,,,,,,,,,,,,,,,,,,,,,,,,,,,,,,,,,,,,,,,,,,,,,,,,,,,,,,,,,,,,,,,,,,,,,,,,,,,,,,,,,,,,,,,,,,,
,,,,,,,5ee25b060f0ccf35b31431af,23,2023-07-20_21h06.23.983,templeton2A_SD_practice,2020.2.10,Win32,60,,,,,,,,,,,,,,,,,,,,,,2.0605,6.499314556,,,,,,,,,,,,,,,,,,,,,,,,,,,,,,,,,,,,,,,,,,,,,,,,,,,,,,,,,,,,,,,,,,,,,,,,,,,,,,,,,,,,,,,,,,,
,,,,,,,5ee25b060f0ccf35b31431af,23,2023-07-20_21h06.23.983,templeton2A_SD_practice,2020.2.10,Win32,60,,,,,,,,,,,,,,,,,,,,,,2.0664,6.499314556,,,,,,,,,,,,,,,,,,,,,,,,,,,,,,,,,,,,,,,,,,,,,,,,,,,,,,,,,,,,,,,,,,,,,,,,,,,,,,,,,,,,,,,,,,,
