Laptop,trials_7.thisRepN,trials_7.thisTrialN,trials_7.thisN,trials_7.thisIndex,trials_7.ran,trials_7.order,participant,mapping,date,expName,psychopyVersion,OS,frameRate,CmUnit,trials_8.thisRepN,trials_8.thisTrialN,trials_8.thisN,trials_8.thisIndex,trials_8.ran,Cm,HeightCmAsEntered,HeightCmUsed,DistCmBasedOnHeight,trials_9.thisRepN,trials_9.thisTrialN,trials_9.thisN,trials_9.thisIndex,trials_9.ran,trials_9.order,screen_scale_start_time,scale_key_pressed,X Scale,Y Scale,screen_scale_end_time,timeInTrial,eccentricity,spacePressed,DistUsedCm,begin_expt_instr_resp.keys,begin_expt_instr_resp.rt,trials_2.thisRepN,trials_2.thisTrialN,trials_2.thisN,trials_2.thisIndex,trials_2.ran,Used_image_1,Used_image_2,Used_image_3,Used_image_4,Used_image_5,Used_image_6,Used_image_7,Used_image_8,Unused_image_1,Unused_image_2,memDisplayOnTimePractice,mem_image_0_practice,mem_image_1_practice,mem_image_2_practice,mem_image_3_practice,mem_image_4_practice,mem_image_5_practice,mem_image_6_practice,mem_image_7_practice,retention_interval_practice,retro_0_post_1_practice,change_or_no_practice,cue_location_practice,mem_display_to_test_array_duration_s,mem_display_to_cue_duration_s,routine_duration_s,sd_practice_resp.keys,sd_practice_resp.rt,conf_practice_resp.keys,conf_practice_resp.rt,trials.thisRepN,trials.thisTrialN,trials.thisN,trials.thisIndex,trials.ran,trials_4.thisRepN,trials_4.thisTrialN,trials_4.thisN,trials_4.thisIndex,trials_4.ran,training_trial_index,memDisplayOnTimeTraining,mem_image_0_training,mem_image_1_training,mem_image_2_training,mem_image_3_training,mem_image_4_training,mem_image_5_training,mem_image_6_training,mem_image_7_training,retro_0_post_1_training,change_or_no_training,cue_location_training,test_image_0_training,test_image_1_training,test_image_2_training,test_image_3_training,test_image_4_training,test_image_5_training,test_image_6_training,test_image_7_training,consecutive_correct_retro_short,sd_training_resp.keys,sd_training_resp.rt,conf_training_resp.keys,conf_training_resp.rt,trials_10.thisRepN,trials_10.thisTrialN,trials_10.thisN,trials_10.thisIndex,trials_10.ran,reachedFinish
1,99,0,99,0,1,98,5f6318fbbfaddb3c293e6236,23,2023-07-20_20h40.20.805,templeton2A_SD_practice,2020.2.10,Win32,60,,,,,,,,,,,,,,,,,,,,,,,,,,,,,,,,,,,,,,,,,,,,,,,,,,,,,,,,,,,,,,,,,,,,,,,,,,,,,,,,,,,,,,,,,,,,,,,,,,,,,,,,
,,,,,,,5f6318fbbfaddb3c293e6236,23,2023-07-20_20h40.20.805,templeton2A_SD_practice,2020.2.10,Win32,60,1,0,0,0,0,1,,,,,,,,,,,,,,,,,,,,,,,,,,,,,,,,,,,,,,,,,,,,,,,,,,,,,,,,,,,,,,,,,,,,,,,,,,,,,,,,,,,,,,,,,,,,,,,,,,
,,,,,,,5f6318fbbfaddb3c293e6236,23,2023-07-20_20h40.20.805,templeton2A_SD_practice,2020.2.10,Win32,60,,,,,,,10,10,172.5,52.57275,99,0,99,0,1,98,,,,,,,,,,,,,,,,,,,,,,,,,,,,,,,,,,,,,,,,,,,,,,,,,,,,,,,,,,,,,,,,,,,,,,,,,,,,,,,,,,,,,,,,
,,,,,,,5f6318fbbfaddb3c293e6236,23,2023-07-20_20h40.20.805,templeton2A_SD_practice,2020.2.10,Win32,60,,,,,,,,,,,,,,,,,41.8758,,,,,,,,,,,,,,,,,,,,,,,,,,,,,,,,,,,,,,,,,,,,,,,,,,,,,,,,,,,,,,,,,,,,,,,,,,,,,,,,,,,,,,,
,,,,,,,5f6318fbbfaddb3c293e6236,23,2023-07-20_20h40.20.805,templeton2A_SD_practice,2020.2.10,Win32,60,,,,,,,,,,,,,,,,,,1,,,,,,,,,,,,,,,,,,,,,,,,,,,,,,,,,,,,,,,,,,,,,,,,,,,,,,,,,,,,,,,,,,,,,,,,,,,,,,,,,,,,,,
,,,,,,,5f6318fbbfaddb3c293e6236,23,2023-07-20_20h40.20.805,templeton2A_SD_practice,2020.2.10,Win32,60,,,,,,,,,,,,,,,,,,1,,,,,,,,,,,,,,,,,,,,,,,,,,,,,,,,,,,,,,,,,,,,,,,,,,,,,,,,,,,,,,,,,,,,,,,,,,,,,,,,,,,,,,
,,,,,,,5f6318fbbfaddb3c293e6236,23,2023-07-20_20h40.20.805,templeton2A_SD_practice,2020.2.10,Win32,60,,,,,,,,,,,,,,,,,,1,,,,,,,,,,,,,,,,,,,,,,,,,,,,,,,,,,,,,,,,,,,,,,,,,,,,,,,,,,,,,,,,,,,,,,,,,,,,,,,,,,,,,,
,,,,,,,5f6318fbbfaddb3c293e6236,23,2023-07-20_20h40.20.805,templeton2A_SD_practice,2020.2.10,Win32,60,,,,,,,,,,,,,,,,,,1,,,,,,,,,,,,,,,,,,,,,,,,,,,,,,,,,,,,,,,,,,,,,,,,,,,,,,,,,,,,,,,,,,,,,,,,,,,,,,,,,,,,,,
,,,,,,,5f6318fbbfaddb3c293e6236,23,2023-07-20_20h40.20.805,templeton2A_SD_practice,2020.2.10,Win32,60,,,,,,,,,,,,,,,,,,1,,,,,,,,,,,,,,,,,,,,,,,,,,,,,,,,,,,,,,,,,,,,,,,,,,,,,,,,,,,,,,,,,,,,,,,,,,,,,,,,,,,,,,
,,,,,,,5f6318fbbfaddb3c293e6236,23,2023-07-20_20h40.20.805,templeton2A_SD_practice,2020.2.10,Win32,60,,,,,,,,,,,,,,,,,,1,,,,,,,,,,,,,,,,,,,,,,,,,,,,,,,,,,,,,,,,,,,,,,,,,,,,,,,,,,,,,,,,,,,,,,,,,,,,,,,,,,,,,,
,,,,,,,5f6318fbbfaddb3c293e6236,23,2023-07-20_20h40.20.805,templeton2A_SD_practice,2020.2.10,Win32,60,,,,,,,,,,,,,,,,,,1,,,,,,,,,,,,,,,,,,,,,,,,,,,,,,,,,,,,,,,,,,,,,,,,,,,,,,,,,,,,,,,,,,,,,,,,,,,,,,,,,,,,,,
,,,,,,,5f6318fbbfaddb3c293e6236,23,2023-07-20_20h40.20.805,templeton2A_SD_practice,2020.2.10,Win32,60,,,,,,,,,,,,,,,,,,1,,,,,,,,,,,,,,,,,,,,,,,,,,,,,,,,,,,,,,,,,,,,,,,,,,,,,,,,,,,,,,,,,,,,,,,,,,,,,,,,,,,,,,
,,,,,,,5f6318fbbfaddb3c293e6236,23,2023-07-20_20h40.20.805,templeton2A_SD_practice,2020.2.10,Win32,60,,,,,,,,,,,,,,,,,,1,,,,,,,,,,,,,,,,,,,,,,,,,,,,,,,,,,,,,,,,,,,,,,,,,,,,,,,,,,,,,,,,,,,,,,,,,,,,,,,,,,,,,,
,,,,,,,5f6318fbbfaddb3c293e6236,23,2023-07-20_20h40.20.805,templeton2A_SD_practice,2020.2.10,Win32,60,,,,,,,,,,,,,,,,,,2,,,,,,,,,,,,,,,,,,,,,,,,,,,,,,,,,,,,,,,,,,,,,,,,,,,,,,,,,,,,,,,,,,,,,,,,,,,,,,,,,,,,,,
,,,,,,,5f6318fbbfaddb3c293e6236,23,2023-07-20_20h40.20.805,templeton2A_SD_practice,2020.2.10,Win32,60,,,,,,,,,,,,,,,,,,2,,,,,,,,,,,,,,,,,,,,,,,,,,,,,,,,,,,,,,,,,,,,,,,,,,,,,,,,,,,,,,,,,,,,,,,,,,,,,,,,,,,,,,
,,,,,,,5f6318fbbfaddb3c293e6236,23,2023-07-20_20h40.20.805,templeton2A_SD_practice,2020.2.10,Win32,60,,,,,,,,,,,,,,,,,,,40,63.5,53.9362,,,,,,,,,,,,,,,,,,,,,,,,,,,,,,,,,,,,,,,,,,,,,,,,,,,,,,,,,,,,,,,,,,,,,,,,,,,,,,,,,,,
,,,,,,,5f6318fbbfaddb3c293e6236,23,2023-07-20_20h40.20.805,templeton2A_SD_practice,2020.2.10,Win32,60,,,,,,,,,,,,,,,,,,,,,,0.0043,5.525613983,,,,,,,,,,,,,,,,,,,,,,,,,,,,,,,,,,,,,,,,,,,,,,,,,,,,,,,,,,,,,,,,,,,,,,,,,,,,,,,,,
,,,,,,,5f6318fbbfaddb3c293e6236,23,2023-07-20_20h40.20.805,templeton2A_SD_practice,2020.2.10,Win32,60,,,,,,,,,,,,,,,,,,,,,,0.0155,5.525613983,,,,,,,,,,,,,,,,,,,,,,,,,,,,,,,,,,,,,,,,,,,,,,,,,,,,,,,,,,,,,,,,,,,,,,,,,,,,,,,,,
,,,,,,,5f6318fbbfaddb3c293e6236,23,2023-07-20_20h40.20.805,templeton2A_SD_practice,2020.2.10,Win32,60,,,,,,,,,,,,,,,,,,,,,,0.0306,5.525613983,,,,,,,,,,,,,,,,,,,,,,,,,,,,,,,,,,,,,,,,,,,,,,,,,,,,,,,,,,,,,,,,,,,,,,,,,,,,,,,,,
,,,,,,,5f6318fbbfaddb3c293e6236,23,2023-07-20_20h40.20.805,templeton2A_SD_practice,2020.2.10,Win32,60,,,,,,,,,,,,,,,,,,,,,,0.0474,5.525613983,,,,,,,,,,,,,,,,,,,,,,,,,,,,,,,,,,,,,,,,,,,,,,,,,,,,,,,,,,,,,,,,,,,,,,,,,,,,,,,,,
,,,,,,,5f6318fbbfaddb3c293e6236,23,2023-07-20_20h40.20.805,templeton2A_SD_practice,2020.2.10,Win32,60,,,,,,,,,,,,,,,,,,,,,,0.0639,5.525613983,,,,,,,,,,,,,,,,,,,,,,,,,,,,,,,,,,,,,,,,,,,,,,,,,,,,,,,,,,,,,,,,,,,,,,,,,,,,,,,,,
,,,,,,,5f6318fbbfaddb3c293e6236,23,2023-07-20_20h40.20.805,templeton2A_SD_practice,2020.2.10,Win32,60,,,,,,,,,,,,,,,,,,,,,,0.0806,5.525613983,,,,,,,,,,,,,,,,,,,,,,,,,,,,,,,,,,,,,,,,,,,,,,,,,,,,,,,,,,,,,,,,,,,,,,,,,,,,,,,,,
,,,,,,,5f6318fbbfaddb3c293e6236,23,2023-07-20_20h40.20.805,templeton2A_SD_practice,2020.2.10,Win32,60,,,,,,,,,,,,,,,,,,,,,,0.097,5.525613983,,,,,,,,,,,,,,,,,,,,,,,,,,,,,,,,,,,,,,,,,,,,,,,,,,,,,,,,,,,,,,,,,,,,,,,,,,,,,,,,,
,,,,,,,5f6318fbbfaddb3c293e6236,23,2023-07-20_20h40.20.805,templeton2A_SD_practice,2020.2.10,Win32,60,,,,,,,,,,,,,,,,,,,,,,0.1143,5.525613983,,,,,,,,,,,,,,,,,,,,,,,,,,,,,,,,,,,,,,,,,,,,,,,,,,,,,,,,,,,,,,,,,,,,,,,,,,,,,,,,,
,,,,,,,5f6318fbbfaddb3c293e6236,23,2023-07-20_20h40.20.805,templeton2A_SD_practice,2020.2.10,Win32,60,,,,,,,,,,,,,,,,,,,,,,0.1357,5.525613983,,,,,,,,,,,,,,,,,,,,,,,,,,,,,,,,,,,,,,,,,,,,,,,,,,,,,,,,,,,,,,,,,,,,,,,,,,,,,,,,,
,,,,,,,5f6318fbbfaddb3c293e6236,23,2023-07-20_20h40.20.805,templeton2A_SD_practice,2020.2.10,Win32,60,,,,,,,,,,,,,,,,,,,,,,0.1472,5.525613983,,,,,,,,,,,,,,,,,,,,,,,,,,,,,,,,,,,,,,,,,,,,,,,,,,,,,,,,,,,,,,,,,,,,,,,,,,,,,,,,,
,,,,,,,5f6318fbbfaddb3c293e6236,23,2023-07-20_20h40.20.805,templeton2A_SD_practice,2020.2.10,Win32,60,,,,,,,,,,,,,,,,,,,,,,0.1638,5.525613983,,,,,,,,,,,,,,,,,,,,,,,,,,,,,,,,,,,,,,,,,,,,,,,,,,,,,,,,,,,,,,,,,,,,,,,,,,,,,,,,,
,,,,,,,5f6318fbbfaddb3c293e6236,23,2023-07-20_20h40.20.805,templeton2A_SD_practice,2020.2.10,Win32,60,,,,,,,,,,,,,,,,,,,,,,0.1805,5.525613983,,,,,,,,,,,,,,,,,,,,,,,,,,,,,,,,,,,,,,,,,,,,,,,,,,,,,,,,,,,,,,,,,,,,,,,,,,,,,,,,,
,,,,,,,5f6318fbbfaddb3c293e6236,23,2023-07-20_20h40.20.805,templeton2A_SD_practice,2020.2.10,Win32,60,,,,,,,,,,,,,,,,,,,,,,0.1972,5.525613983,,,,,,,,,,,,,,,,,,,,,,,,,,,,,,,,,,,,,,,,,,,,,,,,,,,,,,,,,,,,,,,,,,,,,,,,,,,,,,,,,
,,,,,,,5f6318fbbfaddb3c293e6236,23,2023-07-20_20h40.20.805,templeton2A_SD_practice,2020.2.10,Win32,60,,,,,,,,,,,,,,,,,,,,,,0.2138,5.525613983,,,,,,,,,,,,,,,,,,,,,,,,,,,,,,,,,,,,,,,,,,,,,,,,,,,,,,,,,,,,,,,,,,,,,,,,,,,,,,,,,
,,,,,,,5f6318fbbfaddb3c293e6236,23,2023-07-20_20h40.20.805,templeton2A_SD_practice,2020.2.10,Win32,60,,,,,,,,,,,,,,,,,,,,,,0.2305,5.525613983,,,,,,,,,,,,,,,,,,,,,,,,,,,,,,,,,,,,,,,,,,,,,,,,,,,,,,,,,,,,,,,,,,,,,,,,,,,,,,,,,
,,,,,,,5f6318fbbfaddb3c293e6236,23,2023-07-20_20h40.20.805,templeton2A_SD_practice,2020.2.10,Win32,60,,,,,,,,,,,,,,,,,,,,,,0.2472,5.525613983,,,,,,,,,,,,,,,,,,,,,,,,,,,,,,,,,,,,,,,,,,,,,,,,,,,,,,,,,,,,,,,,,,,,,,,,,,,,,,,,,
,,,,,,,5f6318fbbfaddb3c293e6236,23,2023-07-20_20h40.20.805,templeton2A_SD_practice,2020.2.10,Win32,60,,,,,,,,,,,,,,,,,,,,,,0.2639,5.525613983,,,,,,,,,,,,,,,,,,,,,,,,,,,,,,,,,,,,,,,,,,,,,,,,,,,,,,,,,,,,,,,,,,,,,,,,,,,,,,,,,
,,,,,,,5f6318fbbfaddb3c293e6236,23,2023-07-20_20h40.20.805,templeton2A_SD_practice,2020.2.10,Win32,60,,,,,,,,,,,,,,,,,,,,,,0.2804,5.525613983,,,,,,,,,,,,,,,,,,,,,,,,,,,,,,,,,,,,,,,,,,,,,,,,,,,,,,,,,,,,,,,,,,,,,,,,,,,,,,,,,
,,,,,,,5f6318fbbfaddb3c293e6236,23,2023-07-20_20h40.20.805,templeton2A_SD_practice,2020.2.10,Win32,60,,,,,,,,,,,,,,,,,,,,,,0.2972,5.525613983,,,,,,,,,,,,,,,,,,,,,,,,,,,,,,,,,,,,,,,,,,,,,,,,,,,,,,,,,,,,,,,,,,,,,,,,,,,,,,,,,
,,,,,,,5f6318fbbfaddb3c293e6236,23,2023-07-20_20h40.20.805,templeton2A_SD_practice,2020.2.10,Win32,60,,,,,,,,,,,,,,,,,,,,,,0.3137,5.525613983,,,,,,,,,,,,,,,,,,,,,,,,,,,,,,,,,,,,,,,,,,,,,,,,,,,,,,,,,,,,,,,,,,,,,,,,,,,,,,,,,
,,,,,,,5f6318fbbfaddb3c293e6236,23,2023-07-20_20h40.20.805,templeton2A_SD_practice,2020.2.10,Win32,60,,,,,,,,,,,,,,,,,,,,,,0.3304,5.525613983,,,,,,,,,,,,,,,,,,,,,,,,,,,,,,,,,,,,,,,,,,,,,,,,,,,,,,,,,,,,,,,,,,,,,,,,,,,,,,,,,
,,,,,,,5f6318fbbfaddb3c293e6236,23,2023-07-20_20h40.20.805,templeton2A_SD_practice,2020.2.10,Win32,60,,,,,,,,,,,,,,,,,,,,,,0.3471,5.525613983,,,,,,,,,,,,,,,,,,,,,,,,,,,,,,,,,,,,,,,,,,,,,,,,,,,,,,,,,,,,,,,,,,,,,,,,,,,,,,,,,
,,,,,,,5f6318fbbfaddb3c293e6236,23,2023-07-20_20h40.20.805,templeton2A_SD_practice,2020.2.10,Win32,60,,,,,,,,,,,,,,,,,,,,,,0.364,5.525613983,,,,,,,,,,,,,,,,,,,,,,,,,,,,,,,,,,,,,,,,,,,,,,,,,,,,,,,,,,,,,,,,,,,,,,,,,,,,,,,,,
,,,,,,,5f6318fbbfaddb3c293e6236,23,2023-07-20_20h40.20.805,templeton2A_SD_practice,2020.2.10,Win32,60,,,,,,,,,,,,,,,,,,,,,,0.3803,5.525613983,,,,,,,,,,,,,,,,,,,,,,,,,,,,,,,,,,,,,,,,,,,,,,,,,,,,,,,,,,,,,,,,,,,,,,,,,,,,,,,,,
,,,,,,,5f6318fbbfaddb3c293e6236,23,2023-07-20_20h40.20.805,templeton2A_SD_practice,2020.2.10,Win32,60,,,,,,,,,,,,,,,,,,,,,,0.3971,5.525613983,,,,,,,,,,,,,,,,,,,,,,,,,,,,,,,,,,,,,,,,,,,,,,,,,,,,,,,,,,,,,,,,,,,,,,,,,,,,,,,,,
,,,,,,,5f6318fbbfaddb3c293e6236,23,2023-07-20_20h40.20.805,templeton2A_SD_practice,2020.2.10,Win32,60,,,,,,,,,,,,,,,,,,,,,,0.4138,5.525613983,,,,,,,,,,,,,,,,,,,,,,,,,,,,,,,,,,,,,,,,,,,,,,,,,,,,,,,,,,,,,,,,,,,,,,,,,,,,,,,,,
,,,,,,,5f6318fbbfaddb3c293e6236,23,2023-07-20_20h40.20.805,templeton2A_SD_practice,2020.2.10,Win32,60,,,,,,,,,,,,,,,,,,,,,,0.4305,5.525613983,,,,,,,,,,,,,,,,,,,,,,,,,,,,,,,,,,,,,,,,,,,,,,,,,,,,,,,,,,,,,,,,,,,,,,,,,,,,,,,,,
,,,,,,,5f6318fbbfaddb3c293e6236,23,2023-07-20_20h40.20.805,templeton2A_SD_practice,2020.2.10,Win32,60,,,,,,,,,,,,,,,,,,,,,,0.4469,5.525613983,,,,,,,,,,,,,,,,,,,,,,,,,,,,,,,,,,,,,,,,,,,,,,,,,,,,,,,,,,,,,,,,,,,,,,,,,,,,,,,,,
,,,,,,,5f6318fbbfaddb3c293e6236,23,2023-07-20_20h40.20.805,templeton2A_SD_practice,2020.2.10,Win32,60,,,,,,,,,,,,,,,,,,,,,,0.4635,5.525613983,,,,,,,,,,,,,,,,,,,,,,,,,,,,,,,,,,,,,,,,,,,,,,,,,,,,,,,,,,,,,,,,,,,,,,,,,,,,,,,,,
,,,,,,,5f6318fbbfaddb3c293e6236,23,2023-07-20_20h40.20.805,templeton2A_SD_practice,2020.2.10,Win32,60,,,,,,,,,,,,,,,,,,,,,,0.4803,5.525613983,,,,,,,,,,,,,,,,,,,,,,,,,,,,,,,,,,,,,,,,,,,,,,,,,,,,,,,,,,,,,,,,,,,,,,,,,,,,,,,,,
,,,,,,,5f6318fbbfaddb3c293e6236,23,2023-07-20_20h40.20.805,templeton2A_SD_practice,2020.2.10,Win32,60,,,,,,,,,,,,,,,,,,,,,,0.4968,5.525613983,,,,,,,,,,,,,,,,,,,,,,,,,,,,,,,,,,,,,,,,,,,,,,,,,,,,,,,,,,,,,,,,,,,,,,,,,,,,,,,,,
,,,,,,,5f6318fbbfaddb3c293e6236,23,2023-07-20_20h40.20.805,templeton2A_SD_practice,2020.2.10,Win32,60,,,,,,,,,,,,,,,,,,,,,,0.5135,5.525613983,,,,,,,,,,,,,,,,,,,,,,,,,,,,,,,,,,,,,,,,,,,,,,,,,,,,,,,,,,,,,,,,,,,,,,,,,,,,,,,,,
,,,,,,,5f6318fbbfaddb3c293e6236,23,2023-07-20_20h40.20.805,templeton2A_SD_practice,2020.2.10,Win32,60,,,,,,,,,,,,,,,,,,,,,,0.5302,5.525613983,,,,,,,,,,,,,,,,,,,,,,,,,,,,,,,,,,,,,,,,,,,,,,,,,,,,,,,,,,,,,,,,,,,,,,,,,,,,,,,,,
,,,,,,,5f6318fbbfaddb3c293e6236,23,2023-07-20_20h40.20.805,templeton2A_SD_practice,2020.2.10,Win32,60,,,,,,,,,,,,,,,,,,,,,,0.5471,5.525613983,,,,,,,,,,,,,,,,,,,,,,,,,,,,,,,,,,,,,,,,,,,,,,,,,,,,,,,,,,,,,,,,,,,,,,,,,,,,,,,,,
,,,,,,,5f6318fbbfaddb3c293e6236,23,2023-07-20_20h40.20.805,templeton2A_SD_practice,2020.2.10,Win32,60,,,,,,,,,,,,,,,,,,,,,,0.5636,5.525613983,,,,,,,,,,,,,,,,,,,,,,,,,,,,,,,,,,,,,,,,,,,,,,,,,,,,,,,,,,,,,,,,,,,,,,,,,,,,,,,,,
,,,,,,,5f6318fbbfaddb3c293e6236,23,2023-07-20_20h40.20.805,templeton2A_SD_practice,2020.2.10,Win32,60,,,,,,,,,,,,,,,,,,,,,,0.5804,5.525613983,,,,,,,,,,,,,,,,,,,,,,,,,,,,,,,,,,,,,,,,,,,,,,,,,,,,,,,,,,,,,,,,,,,,,,,,,,,,,,,,,
,,,,,,,5f6318fbbfaddb3c293e6236,23,2023-07-20_20h40.20.805,templeton2A_SD_practice,2020.2.10,Win32,60,,,,,,,,,,,,,,,,,,,,,,0.597,5.525613983,,,,,,,,,,,,,,,,,,,,,,,,,,,,,,,,,,,,,,,,,,,,,,,,,,,,,,,,,,,,,,,,,,,,,,,,,,,,,,,,,
,,,,,,,5f6318fbbfaddb3c293e6236,23,2023-07-20_20h40.20.805,templeton2A_SD_practice,2020.2.10,Win32,60,,,,,,,,,,,,,,,,,,,,,,0.6137,5.525613983,,,,,,,,,,,,,,,,,,,,,,,,,,,,,,,,,,,,,,,,,,,,,,,,,,,,,,,,,,,,,,,,,,,,,,,,,,,,,,,,,
,,,,,,,5f6318fbbfaddb3c293e6236,23,2023-07-20_20h40.20.805,templeton2A_SD_practice,2020.2.10,Win32,60,,,,,,,,,,,,,,,,,,,,,,0.6304,5.525613983,,,,,,,,,,,,,,,,,,,,,,,,,,,,,,,,,,,,,,,,,,,,,,,,,,,,,,,,,,,,,,,,,,,,,,,,,,,,,,,,,
,,,,,,,5f6318fbbfaddb3c293e6236,23,2023-07-20_20h40.20.805,templeton2A_SD_practice,2020.2.10,Win32,60,,,,,,,,,,,,,,,,,,,,,,0.6471,5.525613983,,,,,,,,,,,,,,,,,,,,,,,,,,,,,,,,,,,,,,,,,,,,,,,,,,,,,,,,,,,,,,,,,,,,,,,,,,,,,,,,,
,,,,,,,5f6318fbbfaddb3c293e6236,23,2023-07-20_20h40.20.805,templeton2A_SD_practice,2020.2.10,Win32,60,,,,,,,,,,,,,,,,,,,,,,0.6637,5.525613983,,,,,,,,,,,,,,,,,,,,,,,,,,,,,,,,,,,,,,,,,,,,,,,,,,,,,,,,,,,,,,,,,,,,,,,,,,,,,,,,,
,,,,,,,5f6318fbbfaddb3c293e6236,23,2023-07-20_20h40.20.805,templeton2A_SD_practice,2020.2.10,Win32,60,,,,,,,,,,,,,,,,,,,,,,0.6804,5.525613983,,,,,,,,,,,,,,,,,,,,,,,,,,,,,,,,,,,,,,,,,,,,,,,,,,,,,,,,,,,,,,,,,,,,,,,,,,,,,,,,,
,,,,,,,5f6318fbbfaddb3c293e6236,23,2023-07-20_20h40.20.805,templeton2A_SD_practice,2020.2.10,Win32,60,,,,,,,,,,,,,,,,,,,,,,0.6969,5.525613983,,,,,,,,,,,,,,,,,,,,,,,,,,,,,,,,,,,,,,,,,,,,,,,,,,,,,,,,,,,,,,,,,,,,,,,,,,,,,,,,,
,,,,,,,5f6318fbbfaddb3c293e6236,23,2023-07-20_20h40.20.805,templeton2A_SD_practice,2020.2.10,Win32,60,,,,,,,,,,,,,,,,,,,,,,0.7135,5.525613983,,,,,,,,,,,,,,,,,,,,,,,,,,,,,,,,,,,,,,,,,,,,,,,,,,,,,,,,,,,,,,,,,,,,,,,,,,,,,,,,,
,,,,,,,5f6318fbbfaddb3c293e6236,23,2023-07-20_20h40.20.805,templeton2A_SD_practice,2020.2.10,Win32,60,,,,,,,,,,,,,,,,,,,,,,0.7305,5.525613983,,,,,,,,,,,,,,,,,,,,,,,,,,,,,,,,,,,,,,,,,,,,,,,,,,,,,,,,,,,,,,,,,,,,,,,,,,,,,,,,,
,,,,,,,5f6318fbbfaddb3c293e6236,23,2023-07-20_20h40.20.805,templeton2A_SD_practice,2020.2.10,Win32,60,,,,,,,,,,,,,,,,,,,,,,0.7469,5.525613983,,,,,,,,,,,,,,,,,,,,,,,,,,,,,,,,,,,,,,,,,,,,,,,,,,,,,,,,,,,,,,,,,,,,,,,,,,,,,,,,,
,,,,,,,5f6318fbbfaddb3c293e6236,23,2023-07-20_20h40.20.805,templeton2A_SD_practice,2020.2.10,Win32,60,,,,,,,,,,,,,,,,,,,,,,0.7636,5.525613983,,,,,,,,,,,,,,,,,,,,,,,,,,,,,,,,,,,,,,,,,,,,,,,,,,,,,,,,,,,,,,,,,,,,,,,,,,,,,,,,,
,,,,,,,5f6318fbbfaddb3c293e6236,23,2023-07-20_20h40.20.805,templeton2A_SD_practice,2020.2.10,Win32,60,,,,,,,,,,,,,,,,,,,,,,0.7801,5.525613983,,,,,,,,,,,,,,,,,,,,,,,,,,,,,,,,,,,,,,,,,,,,,,,,,,,,,,,,,,,,,,,,,,,,,,,,,,,,,,,,,
,,,,,,,5f6318fbbfaddb3c293e6236,23,2023-07-20_20h40.20.805,templeton2A_SD_practice,2020.2.10,Win32,60,,,,,,,,,,,,,,,,,,,,,,0.7968,5.525613983,,,,,,,,,,,,,,,,,,,,,,,,,,,,,,,,,,,,,,,,,,,,,,,,,,,,,,,,,,,,,,,,,,,,,,,,,,,,,,,,,
,,,,,,,5f6318fbbfaddb3c293e6236,23,2023-07-20_20h40.20.805,templeton2A_SD_practice,2020.2.10,Win32,60,,,,,,,,,,,,,,,,,,,,,,0.8135,5.525613983,,,,,,,,,,,,,,,,,,,,,,,,,,,,,,,,,,,,,,,,,,,,,,,,,,,,,,,,,,,,,,,,,,,,,,,,,,,,,,,,,
,,,,,,,5f6318fbbfaddb3c293e6236,23,2023-07-20_20h40.20.805,templeton2A_SD_practice,2020.2.10,Win32,60,,,,,,,,,,,,,,,,,,,,,,0.8302,5.525613983,,,,,,,,,,,,,,,,,,,,,,,,,,,,,,,,,,,,,,,,,,,,,,,,,,,,,,,,,,,,,,,,,,,,,,,,,,,,,,,,,
,,,,,,,5f6318fbbfaddb3c293e6236,23,2023-07-20_20h40.20.805,templeton2A_SD_practice,2020.2.10,Win32,60,,,,,,,,,,,,,,,,,,,,,,0.8467,5.525613983,,,,,,,,,,,,,,,,,,,,,,,,,,,,,,,,,,,,,,,,,,,,,,,,,,,,,,,,,,,,,,,,,,,,,,,,,,,,,,,,,
,,,,,,,5f6318fbbfaddb3c293e6236,23,2023-07-20_20h40.20.805,templeton2A_SD_practice,2020.2.10,Win32,60,,,,,,,,,,,,,,,,,,,,,,0.8634,5.525613983,,,,,,,,,,,,,,,,,,,,,,,,,,,,,,,,,,,,,,,,,,,,,,,,,,,,,,,,,,,,,,,,,,,,,,,,,,,,,,,,,
,,,,,,,5f6318fbbfaddb3c293e6236,23,2023-07-20_20h40.20.805,templeton2A_SD_practice,2020.2.10,Win32,60,,,,,,,,,,,,,,,,,,,,,,0.8801,5.525613983,,,,,,,,,,,,,,,,,,,,,,,,,,,,,,,,,,,,,,,,,,,,,,,,,,,,,,,,,,,,,,,,,,,,,,,,,,,,,,,,,
,,,,,,,5f6318fbbfaddb3c293e6236,23,2023-07-20_20h40.20.805,templeton2A_SD_practice,2020.2.10,Win32,60,,,,,,,,,,,,,,,,,,,,,,0.8968,5.525613983,,,,,,,,,,,,,,,,,,,,,,,,,,,,,,,,,,,,,,,,,,,,,,,,,,,,,,,,,,,,,,,,,,,,,,,,,,,,,,,,,
,,,,,,,5f6318fbbfaddb3c293e6236,23,2023-07-20_20h40.20.805,templeton2A_SD_practice,2020.2.10,Win32,60,,,,,,,,,,,,,,,,,,,,,,0.9137,5.525613983,,,,,,,,,,,,,,,,,,,,,,,,,,,,,,,,,,,,,,,,,,,,,,,,,,,,,,,,,,,,,,,,,,,,,,,,,,,,,,,,,
,,,,,,,5f6318fbbfaddb3c293e6236,23,2023-07-20_20h40.20.805,templeton2A_SD_practice,2020.2.10,Win32,60,,,,,,,,,,,,,,,,,,,,,,0.9303,5.525613983,,,,,,,,,,,,,,,,,,,,,,,,,,,,,,,,,,,,,,,,,,,,,,,,,,,,,,,,,,,,,,,,,,,,,,,,,,,,,,,,,
,,,,,,,5f6318fbbfaddb3c293e6236,23,2023-07-20_20h40.20.805,templeton2A_SD_practice,2020.2.10,Win32,60,,,,,,,,,,,,,,,,,,,,,,0.9469,5.525613983,,,,,,,,,,,,,,,,,,,,,,,,,,,,,,,,,,,,,,,,,,,,,,,,,,,,,,,,,,,,,,,,,,,,,,,,,,,,,,,,,
,,,,,,,5f6318fbbfaddb3c293e6236,23,2023-07-20_20h40.20.805,templeton2A_SD_practice,2020.2.10,Win32,60,,,,,,,,,,,,,,,,,,,,,,0.9636,5.525613983,,,,,,,,,,,,,,,,,,,,,,,,,,,,,,,,,,,,,,,,,,,,,,,,,,,,,,,,,,,,,,,,,,,,,,,,,,,,,,,,,
,,,,,,,5f6318fbbfaddb3c293e6236,23,2023-07-20_20h40.20.805,templeton2A_SD_practice,2020.2.10,Win32,60,,,,,,,,,,,,,,,,,,,,,,0.9801,5.525613983,,,,,,,,,,,,,,,,,,,,,,,,,,,,,,,,,,,,,,,,,,,,,,,,,,,,,,,,,,,,,,,,,,,,,,,,,,,,,,,,,
,,,,,,,5f6318fbbfaddb3c293e6236,23,2023-07-20_20h40.20.805,templeton2A_SD_practice,2020.2.10,Win32,60,,,,,,,,,,,,,,,,,,,,,,0.9969,5.525613983,,,,,,,,,,,,,,,,,,,,,,,,,,,,,,,,,,,,,,,,,,,,,,,,,,,,,,,,,,,,,,,,,,,,,,,,,,,,,,,,,
,,,,,,,5f6318fbbfaddb3c293e6236,23,2023-07-20_20h40.20.805,templeton2A_SD_practice,2020.2.10,Win32,60,,,,,,,,,,,,,,,,,,,,,,1.0134,5.525613983,,,,,,,,,,,,,,,,,,,,,,,,,,,,,,,,,,,,,,,,,,,,,,,,,,,,,,,,,,,,,,,,,,,,,,,,,,,,,,,,,
,,,,,,,5f6318fbbfaddb3c293e6236,23,2023-07-20_20h40.20.805,templeton2A_SD_practice,2020.2.10,Win32,60,,,,,,,,,,,,,,,,,,,,,,1.0302,5.525613983,,,,,,,,,,,,,,,,,,,,,,,,,,,,,,,,,,,,,,,,,,,,,,,,,,,,,,,,,,,,,,,,,,,,,,,,,,,,,,,,,
,,,,,,,5f6318fbbfaddb3c293e6236,23,2023-07-20_20h40.20.805,templeton2A_SD_practice,2020.2.10,Win32,60,,,,,,,,,,,,,,,,,,,,,,1.0468,5.525613983,,,,,,,,,,,,,,,,,,,,,,,,,,,,,,,,,,,,,,,,,,,,,,,,,,,,,,,,,,,,,,,,,,,,,,,,,,,,,,,,,
,,,,,,,5f6318fbbfaddb3c293e6236,23,2023-07-20_20h40.20.805,templeton2A_SD_practice,2020.2.10,Win32,60,,,,,,,,,,,,,,,,,,,,,,1.0634,5.525613983,,,,,,,,,,,,,,,,,,,,,,,,,,,,,,,,,,,,,,,,,,,,,,,,,,,,,,,,,,,,,,,,,,,,,,,,,,,,,,,,,
,,,,,,,5f6318fbbfaddb3c293e6236,23,2023-07-20_20h40.20.805,templeton2A_SD_practice,2020.2.10,Win32,60,,,,,,,,,,,,,,,,,,,,,,1.0803,5.525613983,,,,,,,,,,,,,,,,,,,,,,,,,,,,,,,,,,,,,,,,,,,,,,,,,,,,,,,,,,,,,,,,,,,,,,,,,,,,,,,,,
,,,,,,,5f6318fbbfaddb3c293e6236,23,2023-07-20_20h40.20.805,templeton2A_SD_practice,2020.2.10,Win32,60,,,,,,,,,,,,,,,,,,,,,,1.0968,5.525613983,,,,,,,,,,,,,,,,,,,,,,,,,,,,,,,,,,,,,,,,,,,,,,,,,,,,,,,,,,,,,,,,,,,,,,,,,,,,,,,,,
,,,,,,,5f6318fbbfaddb3c293e6236,23,2023-07-20_20h40.20.805,templeton2A_SD_practice,2020.2.10,Win32,60,,,,,,,,,,,,,,,,,,,,,,1.1136,5.525613983,,,,,,,,,,,,,,,,,,,,,,,,,,,,,,,,,,,,,,,,,,,,,,,,,,,,,,,,,,,,,,,,,,,,,,,,,,,,,,,,,
,,,,,,,5f6318fbbfaddb3c293e6236,23,2023-07-20_20h40.20.805,templeton2A_SD_practice,2020.2.10,Win32,60,,,,,,,,,,,,,,,,,,,,,,1.1302,5.525613983,,,,,,,,,,,,,,,,,,,,,,,,,,,,,,,,,,,,,,,,,,,,,,,,,,,,,,,,,,,,,,,,,,,,,,,,,,,,,,,,,
,,,,,,,5f6318fbbfaddb3c293e6236,23,2023-07-20_20h40.20.805,templeton2A_SD_practice,2020.2.10,Win32,60,,,,,,,,,,,,,,,,,,,,,,1.1467,5.525613983,,,,,,,,,,,,,,,,,,,,,,,,,,,,,,,,,,,,,,,,,,,,,,,,,,,,,,,,,,,,,,,,,,,,,,,,,,,,,,,,,
,,,,,,,5f6318fbbfaddb3c293e6236,23,2023-07-20_20h40.20.805,templeton2A_SD_practice,2020.2.10,Win32,60,,,,,,,,,,,,,,,,,,,,,,1.1634,5.525613983,,,,,,,,,,,,,,,,,,,,,,,,,,,,,,,,,,,,,,,,,,,,,,,,,,,,,,,,,,,,,,,,,,,,,,,,,,,,,,,,,
,,,,,,,5f6318fbbfaddb3c293e6236,23,2023-07-20_20h40.20.805,templeton2A_SD_practice,2020.2.10,Win32,60,,,,,,,,,,,,,,,,,,,,,,1.1801,5.525613983,,,,,,,,,,,,,,,,,,,,,,,,,,,,,,,,,,,,,,,,,,,,,,,,,,,,,,,,,,,,,,,,,,,,,,,,,,,,,,,,,
,,,,,,,5f6318fbbfaddb3c293e6236,23,2023-07-20_20h40.20.805,templeton2A_SD_practice,2020.2.10,Win32,60,,,,,,,,,,,,,,,,,,,,,,1.1968,5.525613983,,,,,,,,,,,,,,,,,,,,,,,,,,,,,,,,,,,,,,,,,,,,,,,,,,,,,,,,,,,,,,,,,,,,,,,,,,,,,,,,,
,,,,,,,5f6318fbbfaddb3c293e6236,23,2023-07-20_20h40.20.805,templeton2A_SD_practice,2020.2.10,Win32,60,,,,,,,,,,,,,,,,,,,,,,1.2134,5.525613983,,,,,,,,,,,,,,,,,,,,,,,,,,,,,,,,,,,,,,,,,,,,,,,,,,,,,,,,,,,,,,,,,,,,,,,,,,,,,,,,,
,,,,,,,5f6318fbbfaddb3c293e6236,23,2023-07-20_20h40.20.805,templeton2A_SD_practice,2020.2.10,Win32,60,,,,,,,,,,,,,,,,,,,,,,1.2301,5.525613983,,,,,,,,,,,,,,,,,,,,,,,,,,,,,,,,,,,,,,,,,,,,,,,,,,,,,,,,,,,,,,,,,,,,,,,,,,,,,,,,,
,,,,,,,5f6318fbbfaddb3c293e6236,23,2023-07-20_20h40.20.805,templeton2A_SD_practice,2020.2.10,Win32,60,,,,,,,,,,,,,,,,,,,,,,1.2466,5.525613983,,,,,,,,,,,,,,,,,,,,,,,,,,,,,,,,,,,,,,,,,,,,,,,,,,,,,,,,,,,,,,,,,,,,,,,,,,,,,,,,,
,,,,,,,5f6318fbbfaddb3c293e6236,23,2023-07-20_20h40.20.805,templeton2A_SD_practice,2020.2.10,Win32,60,,,,,,,,,,,,,,,,,,,,,,1.2635,5.525613983,,,,,,,,,,,,,,,,,,,,,,,,,,,,,,,,,,,,,,,,,,,,,,,,,,,,,,,,,,,,,,,,,,,,,,,,,,,,,,,,,
,,,,,,,5f6318fbbfaddb3c293e6236,23,2023-07-20_20h40.20.805,templeton2A_SD_practice,2020.2.10,Win32,60,,,,,,,,,,,,,,,,,,,,,,1.2799,5.525613983,,,,,,,,,,,,,,,,,,,,,,,,,,,,,,,,,,,,,,,,,,,,,,,,,,,,,,,,,,,,,,,,,,,,,,,,,,,,,,,,,
,,,,,,,5f6318fbbfaddb3c293e6236,23,2023-07-20_20h40.20.805,templeton2A_SD_practice,2020.2.10,Win32,60,,,,,,,,,,,,,,,,,,,,,,1.2966,5.525613983,,,,,,,,,,,,,,,,,,,,,,,,,,,,,,,,,,,,,,,,,,,,,,,,,,,,,,,,,,,,,,,,,,,,,,,,,,,,,,,,,
,,,,,,,5f6318fbbfaddb3c293e6236,23,2023-07-20_20h40.20.805,templeton2A_SD_practice,2020.2.10,Win32,60,,,,,,,,,,,,,,,,,,,,,,1.3133,5.525613983,,,,,,,,,,,,,,,,,,,,,,,,,,,,,,,,,,,,,,,,,,,,,,,,,,,,,,,,,,,,,,,,,,,,,,,,,,,,,,,,,
,,,,,,,5f6318fbbfaddb3c293e6236,23,2023-07-20_20h40.20.805,templeton2A_SD_practice,2020.2.10,Win32,60,,,,,,,,,,,,,,,,,,,,,,1.3299,5.525613983,,,,,,,,,,,,,,,,,,,,,,,,,,,,,,,,,,,,,,,,,,,,,,,,,,,,,,,,,,,,,,,,,,,,,,,,,,,,,,,,,
,,,,,,,5f6318fbbfaddb3c293e6236,23,2023-07-20_20h40.20.805,templeton2A_SD_practice,2020.2.10,Win32,60,,,,,,,,,,,,,,,,,,,,,,1.3466,5.525613983,,,,,,,,,,,,,,,,,,,,,,,,,,,,,,,,,,,,,,,,,,,,,,,,,,,,,,,,,,,,,,,,,,,,,,,,,,,,,,,,,
,,,,,,,5f6318fbbfaddb3c293e6236,23,2023-07-20_20h40.20.805,templeton2A_SD_practice,2020.2.10,Win32,60,,,,,,,,,,,,,,,,,,,,,,1.3633,5.525613983,,,,,,,,,,,,,,,,,,,,,,,,,,,,,,,,,,,,,,,,,,,,,,,,,,,,,,,,,,,,,,,,,,,,,,,,,,,,,,,,,
,,,,,,,5f6318fbbfaddb3c293e6236,23,2023-07-20_20h40.20.805,templeton2A_SD_practice,2020.2.10,Win32,60,,,,,,,,,,,,,,,,,,,,,,1.3799,5.525613983,,,,,,,,,,,,,,,,,,,,,,,,,,,,,,,,,,,,,,,,,,,,,,,,,,,,,,,,,,,,,,,,,,,,,,,,,,,,,,,,,
,,,,,,,5f6318fbbfaddb3c293e6236,23,2023-07-20_20h40.20.805,templeton2A_SD_practice,2020.2.10,Win32,60,,,,,,,,,,,,,,,,,,,,,,1.3965,5.525613983,,,,,,,,,,,,,,,,,,,,,,,,,,,,,,,,,,,,,,,,,,,,,,,,,,,,,,,,,,,,,,,,,,,,,,,,,,,,,,,,,
,,,,,,,5f6318fbbfaddb3c293e6236,23,2023-07-20_20h40.20.805,templeton2A_SD_practice,2020.2.10,Win32,60,,,,,,,,,,,,,,,,,,,,,,1.4132,5.525613983,,,,,,,,,,,,,,,,,,,,,,,,,,,,,,,,,,,,,,,,,,,,,,,,,,,,,,,,,,,,,,,,,,,,,,,,,,,,,,,,,
,,,,,,,5f6318fbbfaddb3c293e6236,23,2023-07-20_20h40.20.805,templeton2A_SD_practice,2020.2.10,Win32,60,,,,,,,,,,,,,,,,,,,,,,1.4298,5.525613983,,,,,,,,,,,,,,,,,,,,,,,,,,,,,,,,,,,,,,,,,,,,,,,,,,,,,,,,,,,,,,,,,,,,,,,,,,,,,,,,,
,,,,,,,5f6318fbbfaddb3c293e6236,23,2023-07-20_20h40.20.805,templeton2A_SD_practice,2020.2.10,Win32,60,,,,,,,,,,,,,,,,,,,,,,1.4466,5.525613983,,,,,,,,,,,,,,,,,,,,,,,,,,,,,,,,,,,,,,,,,,,,,,,,,,,,,,,,,,,,,,,,,,,,,,,,,,,,,,,,,
,,,,,,,5f6318fbbfaddb3c293e6236,23,2023-07-20_20h40.20.805,templeton2A_SD_practice,2020.2.10,Win32,60,,,,,,,,,,,,,,,,,,,,,,1.4631,5.525613983,,,,,,,,,,,,,,,,,,,,,,,,,,,,,,,,,,,,,,,,,,,,,,,,,,,,,,,,,,,,,,,,,,,,,,,,,,,,,,,,,
,,,,,,,5f6318fbbfaddb3c293e6236,23,2023-07-20_20h40.20.805,templeton2A_SD_practice,2020.2.10,Win32,60,,,,,,,,,,,,,,,,,,,,,,1.48,5.525613983,,,,,,,,,,,,,,,,,,,,,,,,,,,,,,,,,,,,,,,,,,,,,,,,,,,,,,,,,,,,,,,,,,,,,,,,,,,,,,,,,
,,,,,,,5f6318fbbfaddb3c293e6236,23,2023-07-20_20h40.20.805,templeton2A_SD_practice,2020.2.10,Win32,60,,,,,,,,,,,,,,,,,,,,,,1.4967,5.525613983,,,,,,,,,,,,,,,,,,,,,,,,,,,,,,,,,,,,,,,,,,,,,,,,,,,,,,,,,,,,,,,,,,,,,,,,,,,,,,,,,
,,,,,,,5f6318fbbfaddb3c293e6236,23,2023-07-20_20h40.20.805,templeton2A_SD_practice,2020.2.10,Win32,60,,,,,,,,,,,,,,,,,,,,,,1.5131,5.525613983,,,,,,,,,,,,,,,,,,,,,,,,,,,,,,,,,,,,,,,,,,,,,,,,,,,,,,,,,,,,,,,,,,,,,,,,,,,,,,,,,
,,,,,,,5f6318fbbfaddb3c293e6236,23,2023-07-20_20h40.20.805,templeton2A_SD_practice,2020.2.10,Win32,60,,,,,,,,,,,,,,,,,,,,,,1.5299,5.525613983,,,,,,,,,,,,,,,,,,,,,,,,,,,,,,,,,,,,,,,,,,,,,,,,,,,,,,,,,,,,,,,,,,,,,,,,,,,,,,,,,
,,,,,,,5f6318fbbfaddb3c293e6236,23,2023-07-20_20h40.20.805,templeton2A_SD_practice,2020.2.10,Win32,60,,,,,,,,,,,,,,,,,,,,,,1.5466,5.525613983,,,,,,,,,,,,,,,,,,,,,,,,,,,,,,,,,,,,,,,,,,,,,,,,,,,,,,,,,,,,,,,,,,,,,,,,,,,,,,,,,
,,,,,,,5f6318fbbfaddb3c293e6236,23,2023-07-20_20h40.20.805,templeton2A_SD_practice,2020.2.10,Win32,60,,,,,,,,,,,,,,,,,,,,,,1.5631,5.525613983,,,,,,,,,,,,,,,,,,,,,,,,,,,,,,,,,,,,,,,,,,,,,,,,,,,,,,,,,,,,,,,,,,,,,,,,,,,,,,,,,
,,,,,,,5f6318fbbfaddb3c293e6236,23,2023-07-20_20h40.20.805,templeton2A_SD_practice,2020.2.10,Win32,60,,,,,,,,,,,,,,,,,,,,,,1.58,5.525613983,,,,,,,,,,,,,,,,,,,,,,,,,,,,,,,,,,,,,,,,,,,,,,,,,,,,,,,,,,,,,,,,,,,,,,,,,,,,,,,,,
,,,,,,,5f6318fbbfaddb3c293e6236,23,2023-07-20_20h40.20.805,templeton2A_SD_practice,2020.2.10,Win32,60,,,,,,,,,,,,,,,,,,,,,,1.5966,5.525613983,,,,,,,,,,,,,,,,,,,,,,,,,,,,,,,,,,,,,,,,,,,,,,,,,,,,,,,,,,,,,,,,,,,,,,,,,,,,,,,,,
,,,,,,,5f6318fbbfaddb3c293e6236,23,2023-07-20_20h40.20.805,templeton2A_SD_practice,2020.2.10,Win32,60,,,,,,,,,,,,,,,,,,,,,,1.6134,5.525613983,,,,,,,,,,,,,,,,,,,,,,,,,,,,,,,,,,,,,,,,,,,,,,,,,,,,,,,,,,,,,,,,,,,,,,,,,,,,,,,,,
,,,,,,,5f6318fbbfaddb3c293e6236,23,2023-07-20_20h40.20.805,templeton2A_SD_practice,2020.2.10,Win32,60,,,,,,,,,,,,,,,,,,,,,,1.6298,5.525613983,,,,,,,,,,,,,,,,,,,,,,,,,,,,,,,,,,,,,,,,,,,,,,,,,,,,,,,,,,,,,,,,,,,,,,,,,,,,,,,,,
,,,,,,,5f6318fbbfaddb3c293e6236,23,2023-07-20_20h40.20.805,templeton2A_SD_practice,2020.2.10,Win32,60,,,,,,,,,,,,,,,,,,,,,,1.6464,5.525613983,,,,,,,,,,,,,,,,,,,,,,,,,,,,,,,,,,,,,,,,,,,,,,,,,,,,,,,,,,,,,,,,,,,,,,,,,,,,,,,,,
,,,,,,,5f6318fbbfaddb3c293e6236,23,2023-07-20_20h40.20.805,templeton2A_SD_practice,2020.2.10,Win32,60,,,,,,,,,,,,,,,,,,,,,,1.6632,5.525613983,,,,,,,,,,,,,,,,,,,,,,,,,,,,,,,,,,,,,,,,,,,,,,,,,,,,,,,,,,,,,,,,,,,,,,,,,,,,,,,,,
,,,,,,,5f6318fbbfaddb3c293e6236,23,2023-07-20_20h40.20.805,templeton2A_SD_practice,2020.2.10,Win32,60,,,,,,,,,,,,,,,,,,,,,,1.6797,5.525613983,,,,,,,,,,,,,,,,,,,,,,,,,,,,,,,,,,,,,,,,,,,,,,,,,,,,,,,,,,,,,,,,,,,,,,,,,,,,,,,,,
,,,,,,,5f6318fbbfaddb3c293e6236,23,2023-07-20_20h40.20.805,templeton2A_SD_practice,2020.2.10,Win32,60,,,,,,,,,,,,,,,,,,,,,,1.6966,5.525613983,,,,,,,,,,,,,,,,,,,,,,,,,,,,,,,,,,,,,,,,,,,,,,,,,,,,,,,,,,,,,,,,,,,,,,,,,,,,,,,,,
,,,,,,,5f6318fbbfaddb3c293e6236,23,2023-07-20_20h40.20.805,templeton2A_SD_practice,2020.2.10,Win32,60,,,,,,,,,,,,,,,,,,,,,,1.713,5.525613983,,,,,,,,,,,,,,,,,,,,,,,,,,,,,,,,,,,,,,,,,,,,,,,,,,,,,,,,,,,,,,,,,,,,,,,,,,,,,,,,,
,,,,,,,5f6318fbbfaddb3c293e6236,23,2023-07-20_20h40.20.805,templeton2A_SD_practice,2020.2.10,Win32,60,,,,,,,,,,,,,,,,,,,,,,1.7296,5.525613983,,,,,,,,,,,,,,,,,,,,,,,,,,,,,,,,,,,,,,,,,,,,,,,,,,,,,,,,,,,,,,,,,,,,,,,,,,,,,,,,,
,,,,,,,5f6318fbbfaddb3c293e6236,23,2023-07-20_20h40.20.805,templeton2A_SD_practice,2020.2.10,Win32,60,,,,,,,,,,,,,,,,,,,,,,1.7465,5.525613983,,,,,,,,,,,,,,,,,,,,,,,,,,,,,,,,,,,,,,,,,,,,,,,,,,,,,,,,,,,,,,,,,,,,,,,,,,,,,,,,,
,,,,,,,5f6318fbbfaddb3c293e6236,23,2023-07-20_20h40.20.805,templeton2A_SD_practice,2020.2.10,Win32,60,,,,,,,,,,,,,,,,,,,,,,1.7633,5.525613983,,,,,,,,,,,,,,,,,,,,,,,,,,,,,,,,,,,,,,,,,,,,,,,,,,,,,,,,,,,,,,,,,,,,,,,,,,,,,,,,,
,,,,,,,5f6318fbbfaddb3c293e6236,23,2023-07-20_20h40.20.805,templeton2A_SD_practice,2020.2.10,Win32,60,,,,,,,,,,,,,,,,,,,,,,1.7796,5.525613983,,,,,,,,,,,,,,,,,,,,,,,,,,,,,,,,,,,,,,,,,,,,,,,,,,,,,,,,,,,,,,,,,,,,,,,,,,,,,,,,,
,,,,,,,5f6318fbbfaddb3c293e6236,23,2023-07-20_20h40.20.805,templeton2A_SD_practice,2020.2.10,Win32,60,,,,,,,,,,,,,,,,,,,,,,1.7966,5.525613983,,,,,,,,,,,,,,,,,,,,,,,,,,,,,,,,,,,,,,,,,,,,,,,,,,,,,,,,,,,,,,,,,,,,,,,,,,,,,,,,,
,,,,,,,5f6318fbbfaddb3c293e6236,23,2023-07-20_20h40.20.805,templeton2A_SD_practice,2020.2.10,Win32,60,,,,,,,,,,,,,,,,,,,,,,1.8131,5.525613983,,,,,,,,,,,,,,,,,,,,,,,,,,,,,,,,,,,,,,,,,,,,,,,,,,,,,,,,,,,,,,,,,,,,,,,,,,,,,,,,,
,,,,,,,5f6318fbbfaddb3c293e6236,23,2023-07-20_20h40.20.805,templeton2A_SD_practice,2020.2.10,Win32,60,,,,,,,,,,,,,,,,,,,,,,1.8296,5.525613983,,,,,,,,,,,,,,,,,,,,,,,,,,,,,,,,,,,,,,,,,,,,,,,,,,,,,,,,,,,,,,,,,,,,,,,,,,,,,,,,,
,,,,,,,5f6318fbbfaddb3c293e6236,23,2023-07-20_20h40.20.805,templeton2A_SD_practice,2020.2.10,Win32,60,,,,,,,,,,,,,,,,,,,,,,1.8464,5.525613983,,,,,,,,,,,,,,,,,,,,,,,,,,,,,,,,,,,,,,,,,,,,,,,,,,,,,,,,,,,,,,,,,,,,,,,,,,,,,,,,,
,,,,,,,5f6318fbbfaddb3c293e6236,23,2023-07-20_20h40.20.805,templeton2A_SD_practice,2020.2.10,Win32,60,,,,,,,,,,,,,,,,,,,,,,1.8629,5.525613983,,,,,,,,,,,,,,,,,,,,,,,,,,,,,,,,,,,,,,,,,,,,,,,,,,,,,,,,,,,,,,,,,,,,,,,,,,,,,,,,,
,,,,,,,5f6318fbbfaddb3c293e6236,23,2023-07-20_20h40.20.805,templeton2A_SD_practice,2020.2.10,Win32,60,,,,,,,,,,,,,,,,,,,,,,1.8796,5.525613983,,,,,,,,,,,,,,,,,,,,,,,,,,,,,,,,,,,,,,,,,,,,,,,,,,,,,,,,,,,,,,,,,,,,,,,,,,,,,,,,,
,,,,,,,5f6318fbbfaddb3c293e6236,23,2023-07-20_20h40.20.805,templeton2A_SD_practice,2020.2.10,Win32,60,,,,,,,,,,,,,,,,,,,,,,1.8964,5.525613983,,,,,,,,,,,,,,,,,,,,,,,,,,,,,,,,,,,,,,,,,,,,,,,,,,,,,,,,,,,,,,,,,,,,,,,,,,,,,,,,,
,,,,,,,5f6318fbbfaddb3c293e6236,23,2023-07-20_20h40.20.805,templeton2A_SD_practice,2020.2.10,Win32,60,,,,,,,,,,,,,,,,,,,,,,1.9132,5.525613983,,,,,,,,,,,,,,,,,,,,,,,,,,,,,,,,,,,,,,,,,,,,,,,,,,,,,,,,,,,,,,,,,,,,,,,,,,,,,,,,,
,,,,,,,5f6318fbbfaddb3c293e6236,23,2023-07-20_20h40.20.805,templeton2A_SD_practice,2020.2.10,Win32,60,,,,,,,,,,,,,,,,,,,,,,1.9297,5.525613983,,,,,,,,,,,,,,,,,,,,,,,,,,,,,,,,,,,,,,,,,,,,,,,,,,,,,,,,,,,,,,,,,,,,,,,,,,,,,,,,,
,,,,,,,5f6318fbbfaddb3c293e6236,23,2023-07-20_20h40.20.805,templeton2A_SD_practice,2020.2.10,Win32,60,,,,,,,,,,,,,,,,,,,,,,1.9464,5.525613983,,,,,,,,,,,,,,,,,,,,,,,,,,,,,,,,,,,,,,,,,,,,,,,,,,,,,,,,,,,,,,,,,,,,,,,,,,,,,,,,,
,,,,,,,5f6318fbbfaddb3c293e6236,23,2023-07-20_20h40.20.805,templeton2A_SD_practice,2020.2.10,Win32,60,,,,,,,,,,,,,,,,,,,,,,1.9629,5.525613983,,,,,,,,,,,,,,,,,,,,,,,,,,,,,,,,,,,,,,,,,,,,,,,,,,,,,,,,,,,,,,,,,,,,,,,,,,,,,,,,,
,,,,,,,5f6318fbbfaddb3c293e6236,23,2023-07-20_20h40.20.805,templeton2A_SD_practice,2020.2.10,Win32,60,,,,,,,,,,,,,,,,,,,,,,1.9798,5.525613983,,,,,,,,,,,,,,,,,,,,,,,,,,,,,,,,,,,,,,,,,,,,,,,,,,,,,,,,,,,,,,,,,,,,,,,,,,,,,,,,,
,,,,,,,5f6318fbbfaddb3c293e6236,23,2023-07-20_20h40.20.805,templeton2A_SD_practice,2020.2.10,Win32,60,,,,,,,,,,,,,,,,,,,,,,1.9966,5.525613983,,,,,,,,,,,,,,,,,,,,,,,,,,,,,,,,,,,,,,,,,,,,,,,,,,,,,,,,,,,,,,,,,,,,,,,,,,,,,,,,,
,,,,,,,5f6318fbbfaddb3c293e6236,23,2023-07-20_20h40.20.805,templeton2A_SD_practice,2020.2.10,Win32,60,,,,,,,,,,,,,,,,,,,,,,2.013,5.525613983,,,,,,,,,,,,,,,,,,,,,,,,,,,,,,,,,,,,,,,,,,,,,,,,,,,,,,,,,,,,,,,,,,,,,,,,,,,,,,,,,
,,,,,,,5f6318fbbfaddb3c293e6236,23,2023-07-20_20h40.20.805,templeton2A_SD_practice,2020.2.10,Win32,60,,,,,,,,,,,,,,,,,,,,,,2.0294,5.525613983,,,,,,,,,,,,,,,,,,,,,,,,,,,,,,,,,,,,,,,,,,,,,,,,,,,,,,,,,,,,,,,,,,,,,,,,,,,,,,,,,
,,,,,,,5f6318fbbfaddb3c293e6236,23,2023-07-20_20h40.20.805,templeton2A_SD_practice,2020.2.10,Win32,60,,,,,,,,,,,,,,,,,,,,,,2.0463,5.525613983,,,,,,,,,,,,,,,,,,,,,,,,,,,,,,,,,,,,,,,,,,,,,,,,,,,,,,,,,,,,,,,,,,,,,,,,,,,,,,,,,
,,,,,,,5f6318fbbfaddb3c293e6236,23,2023-07-20_20h40.20.805,templeton2A_SD_practice,2020.2.10,Win32,60,,,,,,,,,,,,,,,,,,,,,,2.0628,5.525613983,,,,,,,,,,,,,,,,,,,,,,,,,,,,,,,,,,,,,,,,,,,,,,,,,,,,,,,,,,,,,,,,,,,,,,,,,,,,,,,,,
,,,,,,,5f6318fbbfaddb3c293e6236,23,2023-07-20_20h40.20.805,templeton2A_SD_practice,2020.2.10,Win32,60,,,,,,,,,,,,,,,,,,,,,,2.0795,5.525613983,,,,,,,,,,,,,,,,,,,,,,,,,,,,,,,,,,,,,,,,,,,,,,,,,,,,,,,,,,,,,,,,,,,,,,,,,,,,,,,,,
,,,,,,,5f6318fbbfaddb3c293e6236,23,2023-07-20_20h40.20.805,templeton2A_SD_practice,2020.2.10,Win32,60,,,,,,,,,,,,,,,,,,,,,,2.0963,5.525613983,,,,,,,,,,,,,,,,,,,,,,,,,,,,,,,,,,,,,,,,,,,,,,,,,,,,,,,,,,,,,,,,,,,,,,,,,,,,,,,,,
,,,,,,,5f6318fbbfaddb3c293e6236,23,2023-07-20_20h40.20.805,templeton2A_SD_practice,2020.2.10,Win32,60,,,,,,,,,,,,,,,,,,,,,,2.1128,5.525613983,,,,,,,,,,,,,,,,,,,,,,,,,,,,,,,,,,,,,,,,,,,,,,,,,,,,,,,,,,,,,,,,,,,,,,,,,,,,,,,,,
,,,,,,,5f6318fbbfaddb3c293e6236,23,2023-07-20_20h40.20.805,templeton2A_SD_practice,2020.2.10,Win32,60,,,,,,,,,,,,,,,,,,,,,,2.1299,5.525613983,,,,,,,,,,,,,,,,,,,,,,,,,,,,,,,,,,,,,,,,,,,,,,,,,,,,,,,,,,,,,,,,,,,,,,,,,,,,,,,,,
,,,,,,,5f6318fbbfaddb3c293e6236,23,2023-07-20_20h40.20.805,templeton2A_SD_practice,2020.2.10,Win32,60,,,,,,,,,,,,,,,,,,,,,,2.1464,5.525613983,,,,,,,,,,,,,,,,,,,,,,,,,,,,,,,,,,,,,,,,,,,,,,,,,,,,,,,,,,,,,,,,,,,,,,,,,,,,,,,,,
,,,,,,,5f6318fbbfaddb3c293e6236,23,2023-07-20_20h40.20.805,templeton2A_SD_practice,2020.2.10,Win32,60,,,,,,,,,,,,,,,,,,,,,,2.1631,5.525613983,,,,,,,,,,,,,,,,,,,,,,,,,,,,,,,,,,,,,,,,,,,,,,,,,,,,,,,,,,,,,,,,,,,,,,,,,,,,,,,,,
,,,,,,,5f6318fbbfaddb3c293e6236,23,2023-07-20_20h40.20.805,templeton2A_SD_practice,2020.2.10,Win32,60,,,,,,,,,,,,,,,,,,,,,,2.1795,5.525613983,,,,,,,,,,,,,,,,,,,,,,,,,,,,,,,,,,,,,,,,,,,,,,,,,,,,,,,,,,,,,,,,,,,,,,,,,,,,,,,,,
,,,,,,,5f6318fbbfaddb3c293e6236,23,2023-07-20_20h40.20.805,templeton2A_SD_practice,2020.2.10,Win32,60,,,,,,,,,,,,,,,,,,,,,,2.196,5.525613983,,,,,,,,,,,,,,,,,,,,,,,,,,,,,,,,,,,,,,,,,,,,,,,,,,,,,,,,,,,,,,,,,,,,,,,,,,,,,,,,,
,,,,,,,5f6318fbbfaddb3c293e6236,23,2023-07-20_20h40.20.805,templeton2A_SD_practice,2020.2.10,Win32,60,,,,,,,,,,,,,,,,,,,,,,2.2126,5.525613983,,,,,,,,,,,,,,,,,,,,,,,,,,,,,,,,,,,,,,,,,,,,,,,,,,,,,,,,,,,,,,,,,,,,,,,,,,,,,,,,,
,,,,,,,5f6318fbbfaddb3c293e6236,23,2023-07-20_20h40.20.805,templeton2A_SD_practice,2020.2.10,Win32,60,,,,,,,,,,,,,,,,,,,,,,2.2294,5.525613983,,,,,,,,,,,,,,,,,,,,,,,,,,,,,,,,,,,,,,,,,,,,,,,,,,,,,,,,,,,,,,,,,,,,,,,,,,,,,,,,,
,,,,,,,5f6318fbbfaddb3c293e6236,23,2023-07-20_20h40.20.805,templeton2A_SD_practice,2020.2.10,Win32,60,,,,,,,,,,,,,,,,,,,,,,2.2459,5.525613983,,,,,,,,,,,,,,,,,,,,,,,,,,,,,,,,,,,,,,,,,,,,,,,,,,,,,,,,,,,,,,,,,,,,,,,,,,,,,,,,,
,,,,,,,5f6318fbbfaddb3c293e6236,23,2023-07-20_20h40.20.805,templeton2A_SD_practice,2020.2.10,Win32,60,,,,,,,,,,,,,,,,,,,,,,2.2628,5.525613983,,,,,,,,,,,,,,,,,,,,,,,,,,,,,,,,,,,,,,,,,,,,,,,,,,,,,,,,,,,,,,,,,,,,,,,,,,,,,,,,,
,,,,,,,5f6318fbbfaddb3c293e6236,23,2023-07-20_20h40.20.805,templeton2A_SD_practice,2020.2.10,Win32,60,,,,,,,,,,,,,,,,,,,,,,2.2797,5.525613983,,,,,,,,,,,,,,,,,,,,,,,,,,,,,,,,,,,,,,,,,,,,,,,,,,,,,,,,,,,,,,,,,,,,,,,,,,,,,,,,,
,,,,,,,5f6318fbbfaddb3c293e6236,23,2023-07-20_20h40.20.805,templeton2A_SD_practice,2020.2.10,Win32,60,,,,,,,,,,,,,,,,,,,,,,2.2962,5.525613983,,,,,,,,,,,,,,,,,,,,,,,,,,,,,,,,,,,,,,,,,,,,,,,,,,,,,,,,,,,,,,,,,,,,,,,,,,,,,,,,,
,,,,,,,5f6318fbbfaddb3c293e6236,23,2023-07-20_20h40.20.805,templeton2A_SD_practice,2020.2.10,Win32,60,,,,,,,,,,,,,,,,,,,,,,2.3127,5.525613983,,,,,,,,,,,,,,,,,,,,,,,,,,,,,,,,,,,,,,,,,,,,,,,,,,,,,,,,,,,,,,,,,,,,,,,,,,,,,,,,,
,,,,,,,5f6318fbbfaddb3c293e6236,23,2023-07-20_20h40.20.805,templeton2A_SD_practice,2020.2.10,Win32,60,,,,,,,,,,,,,,,,,,,,,,2.3295,5.525613983,,,,,,,,,,,,,,,,,,,,,,,,,,,,,,,,,,,,,,,,,,,,,,,,,,,,,,,,,,,,,,,,,,,,,,,,,,,,,,,,,
,,,,,,,5f6318fbbfaddb3c293e6236,23,2023-07-20_20h40.20.805,templeton2A_SD_practice,2020.2.10,Win32,60,,,,,,,,,,,,,,,,,,,,,,2.3462,5.525613983,,,,,,,,,,,,,,,,,,,,,,,,,,,,,,,,,,,,,,,,,,,,,,,,,,,,,,,,,,,,,,,,,,,,,,,,,,,,,,,,,
,,,,,,,5f6318fbbfaddb3c293e6236,23,2023-07-20_20h40.20.805,templeton2A_SD_practice,2020.2.10,Win32,60,,,,,,,,,,,,,,,,,,,,,,2.3627,5.525613983,,,,,,,,,,,,,,,,,,,,,,,,,,,,,,,,,,,,,,,,,,,,,,,,,,,,,,,,,,,,,,,,,,,,,,,,,,,,,,,,,
,,,,,,,5f6318fbbfaddb3c293e6236,23,2023-07-20_20h40.20.805,templeton2A_SD_practice,2020.2.10,Win32,60,,,,,,,,,,,,,,,,,,,,,,2.3794,5.525613983,,,,,,,,,,,,,,,,,,,,,,,,,,,,,,,,,,,,,,,,,,,,,,,,,,,,,,,,,,,,,,,,,,,,,,,,,,,,,,,,,
,,,,,,,5f6318fbbfaddb3c293e6236,23,2023-07-20_20h40.20.805,templeton2A_SD_practice,2020.2.10,Win32,60,,,,,,,,,,,,,,,,,,,,,,2.3961,5.525613983,,,,,,,,,,,,,,,,,,,,,,,,,,,,,,,,,,,,,,,,,,,,,,,,,,,,,,,,,,,,,,,,,,,,,,,,,,,,,,,,,
,,,,,,,5f6318fbbfaddb3c293e6236,23,2023-07-20_20h40.20.805,templeton2A_SD_practice,2020.2.10,Win32,60,,,,,,,,,,,,,,,,,,,,,,2.4126,5.525613983,,,,,,,,,,,,,,,,,,,,,,,,,,,,,,,,,,,,,,,,,,,,,,,,,,,,,,,,,,,,,,,,,,,,,,,,,,,,,,,,,
,,,,,,,5f6318fbbfaddb3c293e6236,23,2023-07-20_20h40.20.805,templeton2A_SD_practice,2020.2.10,Win32,60,,,,,,,,,,,,,,,,,,,,,,2.4292,5.525613983,,,,,,,,,,,,,,,,,,,,,,,,,,,,,,,,,,,,,,,,,,,,,,,,,,,,,,,,,,,,,,,,,,,,,,,,,,,,,,,,,
,,,,,,,5f6318fbbfaddb3c293e6236,23,2023-07-20_20h40.20.805,templeton2A_SD_practice,2020.2.10,Win32,60,,,,,,,,,,,,,,,,,,,,,,2.4462,5.525613983,,,,,,,,,,,,,,,,,,,,,,,,,,,,,,,,,,,,,,,,,,,,,,,,,,,,,,,,,,,,,,,,,,,,,,,,,,,,,,,,,
,,,,,,,5f6318fbbfaddb3c293e6236,23,2023-07-20_20h40.20.805,templeton2A_SD_practice,2020.2.10,Win32,60,,,,,,,,,,,,,,,,,,,,,,2.4625,5.525613983,,,,,,,,,,,,,,,,,,,,,,,,,,,,,,,,,,,,,,,,,,,,,,,,,,,,,,,,,,,,,,,,,,,,,,,,,,,,,,,,,
,,,,,,,5f6318fbbfaddb3c293e6236,23,2023-07-20_20h40.20.805,templeton2A_SD_practice,2020.2.10,Win32,60,,,,,,,,,,,,,,,,,,,,,,2.4792,5.525613983,,,,,,,,,,,,,,,,,,,,,,,,,,,,,,,,,,,,,,,,,,,,,,,,,,,,,,,,,,,,,,,,,,,,,,,,,,,,,,,,,
,,,,,,,5f6318fbbfaddb3c293e6236,23,2023-07-20_20h40.20.805,templeton2A_SD_practice,2020.2.10,Win32,60,,,,,,,,,,,,,,,,,,,,,,2.4958,5.525613983,,,,,,,,,,,,,,,,,,,,,,,,,,,,,,,,,,,,,,,,,,,,,,,,,,,,,,,,,,,,,,,,,,,,,,,,,,,,,,,,,
,,,,,,,5f6318fbbfaddb3c293e6236,23,2023-07-20_20h40.20.805,templeton2A_SD_practice,2020.2.10,Win32,60,,,,,,,,,,,,,,,,,,,,,,2.513,5.525613983,,,,,,,,,,,,,,,,,,,,,,,,,,,,,,,,,,,,,,,,,,,,,,,,,,,,,,,,,,,,,,,,,,,,,,,,,,,,,,,,,
,,,,,,,5f6318fbbfaddb3c293e6236,23,2023-07-20_20h40.20.805,templeton2A_SD_practice,2020.2.10,Win32,60,,,,,,,,,,,,,,,,,,,,,,2.5291,5.525613983,,,,,,,,,,,,,,,,,,,,,,,,,,,,,,,,,,,,,,,,,,,,,,,,,,,,,,,,,,,,,,,,,,,,,,,,,,,,,,,,,
,,,,,,,5f6318fbbfaddb3c293e6236,23,2023-07-20_20h40.20.805,templeton2A_SD_practice,2020.2.10,Win32,60,,,,,,,,,,,,,,,,,,,,,,2.5461,5.525613983,,,,,,,,,,,,,,,,,,,,,,,,,,,,,,,,,,,,,,,,,,,,,,,,,,,,,,,,,,,,,,,,,,,,,,,,,,,,,,,,,
,,,,,,,5f6318fbbfaddb3c293e6236,23,2023-07-20_20h40.20.805,templeton2A_SD_practice,2020.2.10,Win32,60,,,,,,,,,,,,,,,,,,,,,,2.5626,5.525613983,,,,,,,,,,,,,,,,,,,,,,,,,,,,,,,,,,,,,,,,,,,,,,,,,,,,,,,,,,,,,,,,,,,,,,,,,,,,,,,,,
,,,,,,,5f6318fbbfaddb3c293e6236,23,2023-07-20_20h40.20.805,templeton2A_SD_practice,2020.2.10,Win32,60,,,,,,,,,,,,,,,,,,,,,,2.5792,5.525613983,,,,,,,,,,,,,,,,,,,,,,,,,,,,,,,,,,,,,,,,,,,,,,,,,,,,,,,,,,,,,,,,,,,,,,,,,,,,,,,,,
,,,,,,,5f6318fbbfaddb3c293e6236,23,2023-07-20_20h40.20.805,templeton2A_SD_practice,2020.2.10,Win32,60,,,,,,,,,,,,,,,,,,,,,,2.596,5.525613983,,,,,,,,,,,,,,,,,,,,,,,,,,,,,,,,,,,,,,,,,,,,,,,,,,,,,,,,,,,,,,,,,,,,,,,,,,,,,,,,,
,,,,,,,5f6318fbbfaddb3c293e6236,23,2023-07-20_20h40.20.805,templeton2A_SD_practice,2020.2.10,Win32,60,,,,,,,,,,,,,,,,,,,,,,2.6125,5.525613983,,,,,,,,,,,,,,,,,,,,,,,,,,,,,,,,,,,,,,,,,,,,,,,,,,,,,,,,,,,,,,,,,,,,,,,,,,,,,,,,,
,,,,,,,5f6318fbbfaddb3c293e6236,23,2023-07-20_20h40.20.805,templeton2A_SD_practice,2020.2.10,Win32,60,,,,,,,,,,,,,,,,,,,,,,2.6291,5.525613983,,,,,,,,,,,,,,,,,,,,,,,,,,,,,,,,,,,,,,,,,,,,,,,,,,,,,,,,,,,,,,,,,,,,,,,,,,,,,,,,,
,,,,,,,5f6318fbbfaddb3c293e6236,23,2023-07-20_20h40.20.805,templeton2A_SD_practice,2020.2.10,Win32,60,,,,,,,,,,,,,,,,,,,,,,2.646,5.525613983,,,,,,,,,,,,,,,,,,,,,,,,,,,,,,,,,,,,,,,,,,,,,,,,,,,,,,,,,,,,,,,,,,,,,,,,,,,,,,,,,
,,,,,,,5f6318fbbfaddb3c293e6236,23,2023-07-20_20h40.20.805,templeton2A_SD_practice,2020.2.10,Win32,60,,,,,,,,,,,,,,,,,,,,,,2.6625,5.525613983,,,,,,,,,,,,,,,,,,,,,,,,,,,,,,,,,,,,,,,,,,,,,,,,,,,,,,,,,,,,,,,,,,,,,,,,,,,,,,,,,
,,,,,,,5f6318fbbfaddb3c293e6236,23,2023-07-20_20h40.20.805,templeton2A_SD_practice,2020.2.10,Win32,60,,,,,,,,,,,,,,,,,,,,,,2.6792,5.525613983,,,,,,,,,,,,,,,,,,,,,,,,,,,,,,,,,,,,,,,,,,,,,,,,,,,,,,,,,,,,,,,,,,,,,,,,,,,,,,,,,
,,,,,,,5f6318fbbfaddb3c293e6236,23,2023-07-20_20h40.20.805,templeton2A_SD_practice,2020.2.10,Win32,60,,,,,,,,,,,,,,,,,,,,,,2.6963,5.525613983,,,,,,,,,,,,,,,,,,,,,,,,,,,,,,,,,,,,,,,,,,,,,,,,,,,,,,,,,,,,,,,,,,,,,,,,,,,,,,,,,
,,,,,,,5f6318fbbfaddb3c293e6236,23,2023-07-20_20h40.20.805,templeton2A_SD_practice,2020.2.10,Win32,60,,,,,,,,,,,,,,,,,,,,,,2.7124,5.525613983,,,,,,,,,,,,,,,,,,,,,,,,,,,,,,,,,,,,,,,,,,,,,,,,,,,,,,,,,,,,,,,,,,,,,,,,,,,,,,,,,
,,,,,,,5f6318fbbfaddb3c293e6236,23,2023-07-20_20h40.20.805,templeton2A_SD_practice,2020.2.10,Win32,60,,,,,,,,,,,,,,,,,,,,,,2.7291,5.525613983,,,,,,,,,,,,,,,,,,,,,,,,,,,,,,,,,,,,,,,,,,,,,,,,,,,,,,,,,,,,,,,,,,,,,,,,,,,,,,,,,
,,,,,,,5f6318fbbfaddb3c293e6236,23,2023-07-20_20h40.20.805,templeton2A_SD_practice,2020.2.10,Win32,60,,,,,,,,,,,,,,,,,,,,,,2.7459,5.525613983,,,,,,,,,,,,,,,,,,,,,,,,,,,,,,,,,,,,,,,,,,,,,,,,,,,,,,,,,,,,,,,,,,,,,,,,,,,,,,,,,
,,,,,,,5f6318fbbfaddb3c293e6236,23,2023-07-20_20h40.20.805,templeton2A_SD_practice,2020.2.10,Win32,60,,,,,,,,,,,,,,,,,,,,,,2.7624,5.525613983,,,,,,,,,,,,,,,,,,,,,,,,,,,,,,,,,,,,,,,,,,,,,,,,,,,,,,,,,,,,,,,,,,,,,,,,,,,,,,,,,
,,,,,,,5f6318fbbfaddb3c293e6236,23,2023-07-20_20h40.20.805,templeton2A_SD_practice,2020.2.10,Win32,60,,,,,,,,,,,,,,,,,,,,,,2.779,5.525613983,,,,,,,,,,,,,,,,,,,,,,,,,,,,,,,,,,,,,,,,,,,,,,,,,,,,,,,,,,,,,,,,,,,,,,,,,,,,,,,,,
,,,,,,,5f6318fbbfaddb3c293e6236,23,2023-07-20_20h40.20.805,templeton2A_SD_practice,2020.2.10,Win32,60,,,,,,,,,,,,,,,,,,,,,,2.7959,5.525613983,,,,,,,,,,,,,,,,,,,,,,,,,,,,,,,,,,,,,,,,,,,,,,,,,,,,,,,,,,,,,,,,,,,,,,,,,,,,,,,,,
,,,,,,,5f6318fbbfaddb3c293e6236,23,2023-07-20_20h40.20.805,templeton2A_SD_practice,2020.2.10,Win32,60,,,,,,,,,,,,,,,,,,,,,,2.8125,5.525613983,,,,,,,,,,,,,,,,,,,,,,,,,,,,,,,,,,,,,,,,,,,,,,,,,,,,,,,,,,,,,,,,,,,,,,,,,,,,,,,,,
,,,,,,,5f6318fbbfaddb3c293e6236,23,2023-07-20_20h40.20.805,templeton2A_SD_practice,2020.2.10,Win32,60,,,,,,,,,,,,,,,,,,,,,,2.829,5.525613983,,,,,,,,,,,,,,,,,,,,,,,,,,,,,,,,,,,,,,,,,,,,,,,,,,,,,,,,,,,,,,,,,,,,,,,,,,,,,,,,,
,,,,,,,5f6318fbbfaddb3c293e6236,23,2023-07-20_20h40.20.805,templeton2A_SD_practice,2020.2.10,Win32,60,,,,,,,,,,,,,,,,,,,,,,2.846,5.525613983,,,,,,,,,,,,,,,,,,,,,,,,,,,,,,,,,,,,,,,,,,,,,,,,,,,,,,,,,,,,,,,,,,,,,,,,,,,,,,,,,
,,,,,,,5f6318fbbfaddb3c293e6236,23,2023-07-20_20h40.20.805,templeton2A_SD_practice,2020.2.10,Win32,60,,,,,,,,,,,,,,,,,,,,,,2.8626,5.525613983,,,,,,,,,,,,,,,,,,,,,,,,,,,,,,,,,,,,,,,,,,,,,,,,,,,,,,,,,,,,,,,,,,,,,,,,,,,,,,,,,
,,,,,,,5f6318fbbfaddb3c293e6236,23,2023-07-20_20h40.20.805,templeton2A_SD_practice,2020.2.10,Win32,60,,,,,,,,,,,,,,,,,,,,,,2.8793,5.525613983,,,,,,,,,,,,,,,,,,,,,,,,,,,,,,,,,,,,,,,,,,,,,,,,,,,,,,,,,,,,,,,,,,,,,,,,,,,,,,,,,
,,,,,,,5f6318fbbfaddb3c293e6236,23,2023-07-20_20h40.20.805,templeton2A_SD_practice,2020.2.10,Win32,60,,,,,,,,,,,,,,,,,,,,,,2.8958,5.525613983,,,,,,,,,,,,,,,,,,,,,,,,,,,,,,,,,,,,,,,,,,,,,,,,,,,,,,,,,,,,,,,,,,,,,,,,,,,,,,,,,
,,,,,,,5f6318fbbfaddb3c293e6236,23,2023-07-20_20h40.20.805,templeton2A_SD_practice,2020.2.10,Win32,60,,,,,,,,,,,,,,,,,,,,,,2.9125,5.525613983,,,,,,,,,,,,,,,,,,,,,,,,,,,,,,,,,,,,,,,,,,,,,,,,,,,,,,,,,,,,,,,,,,,,,,,,,,,,,,,,,
,,,,,,,5f6318fbbfaddb3c293e6236,23,2023-07-20_20h40.20.805,templeton2A_SD_practice,2020.2.10,Win32,60,,,,,,,,,,,,,,,,,,,,,,2.9292,5.525613983,,,,,,,,,,,,,,,,,,,,,,,,,,,,,,,,,,,,,,,,,,,,,,,,,,,,,,,,,,,,,,,,,,,,,,,,,,,,,,,,,
,,,,,,,5f6318fbbfaddb3c293e6236,23,2023-07-20_20h40.20.805,templeton2A_SD_practice,2020.2.10,Win32,60,,,,,,,,,,,,,,,,,,,,,,2.9458,5.525613983,,,,,,,,,,,,,,,,,,,,,,,,,,,,,,,,,,,,,,,,,,,,,,,,,,,,,,,,,,,,,,,,,,,,,,,,,,,,,,,,,
,,,,,,,5f6318fbbfaddb3c293e6236,23,2023-07-20_20h40.20.805,templeton2A_SD_practice,2020.2.10,Win32,60,,,,,,,,,,,,,,,,,,,,,,2.9624,5.525613983,,,,,,,,,,,,,,,,,,,,,,,,,,,,,,,,,,,,,,,,,,,,,,,,,,,,,,,,,,,,,,,,,,,,,,,,,,,,,,,,,
,,,,,,,5f6318fbbfaddb3c293e6236,23,2023-07-20_20h40.20.805,templeton2A_SD_practice,2020.2.10,Win32,60,,,,,,,,,,,,,,,,,,,,,,2.979,5.525613983,,,,,,,,,,,,,,,,,,,,,,,,,,,,,,,,,,,,,,,,,,,,,,,,,,,,,,,,,,,,,,,,,,,,,,,,,,,,,,,,,
,,,,,,,5f6318fbbfaddb3c293e6236,23,2023-07-20_20h40.20.805,templeton2A_SD_practice,2020.2.10,Win32,60,,,,,,,,,,,,,,,,,,,,,,2.9956,5.525613983,,,,,,,,,,,,,,,,,,,,,,,,,,,,,,,,,,,,,,,,,,,,,,,,,,,,,,,,,,,,,,,,,,,,,,,,,,,,,,,,,
,,,,,,,5f6318fbbfaddb3c293e6236,23,2023-07-20_20h40.20.805,templeton2A_SD_practice,2020.2.10,Win32,60,,,,,,,,,,,,,,,,,,,,,,3.0125,5.525613983,,,,,,,,,,,,,,,,,,,,,,,,,,,,,,,,,,,,,,,,,,,,,,,,,,,,,,,,,,,,,,,,,,,,,,,,,,,,,,,,,
,,,,,,,5f6318fbbfaddb3c293e6236,23,2023-07-20_20h40.20.805,templeton2A_SD_practice,2020.2.10,Win32,60,,,,,,,,,,,,,,,,,,,,,,3.0291,5.525613983,,,,,,,,,,,,,,,,,,,,,,,,,,,,,,,,,,,,,,,,,,,,,,,,,,,,,,,,,,,,,,,,,,,,,,,,,,,,,,,,,
,,,,,,,5f6318fbbfaddb3c293e6236,23,2023-07-20_20h40.20.805,templeton2A_SD_practice,2020.2.10,Win32,60,,,,,,,,,,,,,,,,,,,,,,3.0459,5.525613983,,,,,,,,,,,,,,,,,,,,,,,,,,,,,,,,,,,,,,,,,,,,,,,,,,,,,,,,,,,,,,,,,,,,,,,,,,,,,,,,,
,,,,,,,5f6318fbbfaddb3c293e6236,23,2023-07-20_20h40.20.805,templeton2A_SD_practice,2020.2.10,Win32,60,,,,,,,,,,,,,,,,,,,,,,3.0623,5.525613983,,,,,,,,,,,,,,,,,,,,,,,,,,,,,,,,,,,,,,,,,,,,,,,,,,,,,,,,,,,,,,,,,,,,,,,,,,,,,,,,,
,,,,,,,5f6318fbbfaddb3c293e6236,23,2023-07-20_20h40.20.805,templeton2A_SD_practice,2020.2.10,Win32,60,,,,,,,,,,,,,,,,,,,,,,3.0789,5.525613983,,,,,,,,,,,,,,,,,,,,,,,,,,,,,,,,,,,,,,,,,,,,,,,,,,,,,,,,,,,,,,,,,,,,,,,,,,,,,,,,,
,,,,,,,5f6318fbbfaddb3c293e6236,23,2023-07-20_20h40.20.805,templeton2A_SD_practice,2020.2.10,Win32,60,,,,,,,,,,,,,,,,,,,,,,3.0957,5.525613983,,,,,,,,,,,,,,,,,,,,,,,,,,,,,,,,,,,,,,,,,,,,,,,,,,,,,,,,,,,,,,,,,,,,,,,,,,,,,,,,,
,,,,,,,5f6318fbbfaddb3c293e6236,23,2023-07-20_20h40.20.805,templeton2A_SD_practice,2020.2.10,Win32,60,,,,,,,,,,,,,,,,,,,,,,3.1123,5.525613983,,,,,,,,,,,,,,,,,,,,,,,,,,,,,,,,,,,,,,,,,,,,,,,,,,,,,,,,,,,,,,,,,,,,,,,,,,,,,,,,,
,,,,,,,5f6318fbbfaddb3c293e6236,23,2023-07-20_20h40.20.805,templeton2A_SD_practice,2020.2.10,Win32,60,,,,,,,,,,,,,,,,,,,,,,3.1291,5.525613983,,,,,,,,,,,,,,,,,,,,,,,,,,,,,,,,,,,,,,,,,,,,,,,,,,,,,,,,,,,,,,,,,,,,,,,,,,,,,,,,,
,,,,,,,5f6318fbbfaddb3c293e6236,23,2023-07-20_20h40.20.805,templeton2A_SD_practice,2020.2.10,Win32,60,,,,,,,,,,,,,,,,,,,,,,3.1455,5.525613983,,,,,,,,,,,,,,,,,,,,,,,,,,,,,,,,,,,,,,,,,,,,,,,,,,,,,,,,,,,,,,,,,,,,,,,,,,,,,,,,,
,,,,,,,5f6318fbbfaddb3c293e6236,23,2023-07-20_20h40.20.805,templeton2A_SD_practice,2020.2.10,Win32,60,,,,,,,,,,,,,,,,,,,,,,3.1622,5.525613983,,,,,,,,,,,,,,,,,,,,,,,,,,,,,,,,,,,,,,,,,,,,,,,,,,,,,,,,,,,,,,,,,,,,,,,,,,,,,,,,,
,,,,,,,5f6318fbbfaddb3c293e6236,23,2023-07-20_20h40.20.805,templeton2A_SD_practice,2020.2.10,Win32,60,,,,,,,,,,,,,,,,,,,,,,3.1791,5.525613983,,,,,,,,,,,,,,,,,,,,,,,,,,,,,,,,,,,,,,,,,,,,,,,,,,,,,,,,,,,,,,,,,,,,,,,,,,,,,,,,,
,,,,,,,5f6318fbbfaddb3c293e6236,23,2023-07-20_20h40.20.805,templeton2A_SD_practice,2020.2.10,Win32,60,,,,,,,,,,,,,,,,,,,,,,3.1956,5.525613983,,,,,,,,,,,,,,,,,,,,,,,,,,,,,,,,,,,,,,,,,,,,,,,,,,,,,,,,,,,,,,,,,,,,,,,,,,,,,,,,,
,,,,,,,5f6318fbbfaddb3c293e6236,23,2023-07-20_20h40.20.805,templeton2A_SD_practice,2020.2.10,Win32,60,,,,,,,,,,,,,,,,,,,,,,3.2125,5.525613983,,,,,,,,,,,,,,,,,,,,,,,,,,,,,,,,,,,,,,,,,,,,,,,,,,,,,,,,,,,,,,,,,,,,,,,,,,,,,,,,,
,,,,,,,5f6318fbbfaddb3c293e6236,23,2023-07-20_20h40.20.805,templeton2A_SD_practice,2020.2.10,Win32,60,,,,,,,,,,,,,,,,,,,,,,3.2292,5.525613983,,,,,,,,,,,,,,,,,,,,,,,,,,,,,,,,,,,,,,,,,,,,,,,,,,,,,,,,,,,,,,,,,,,,,,,,,,,,,,,,,
,,,,,,,5f6318fbbfaddb3c293e6236,23,2023-07-20_20h40.20.805,templeton2A_SD_practice,2020.2.10,Win32,60,,,,,,,,,,,,,,,,,,,,,,3.2461,5.525613983,,,,,,,,,,,,,,,,,,,,,,,,,,,,,,,,,,,,,,,,,,,,,,,,,,,,,,,,,,,,,,,,,,,,,,,,,,,,,,,,,
,,,,,,,5f6318fbbfaddb3c293e6236,23,2023-07-20_20h40.20.805,templeton2A_SD_practice,2020.2.10,Win32,60,,,,,,,,,,,,,,,,,,,,,,3.2624,5.525613983,,,,,,,,,,,,,,,,,,,,,,,,,,,,,,,,,,,,,,,,,,,,,,,,,,,,,,,,,,,,,,,,,,,,,,,,,,,,,,,,,
,,,,,,,5f6318fbbfaddb3c293e6236,23,2023-07-20_20h40.20.805,templeton2A_SD_practice,2020.2.10,Win32,60,,,,,,,,,,,,,,,,,,,,,,3.2789,5.525613983,,,,,,,,,,,,,,,,,,,,,,,,,,,,,,,,,,,,,,,,,,,,,,,,,,,,,,,,,,,,,,,,,,,,,,,,,,,,,,,,,
,,,,,,,5f6318fbbfaddb3c293e6236,23,2023-07-20_20h40.20.805,templeton2A_SD_practice,2020.2.10,Win32,60,,,,,,,,,,,,,,,,,,,,,,3.2958,5.525613983,,,,,,,,,,,,,,,,,,,,,,,,,,,,,,,,,,,,,,,,,,,,,,,,,,,,,,,,,,,,,,,,,,,,,,,,,,,,,,,,,
,,,,,,,5f6318fbbfaddb3c293e6236,23,2023-07-20_20h40.20.805,templeton2A_SD_practice,2020.2.10,Win32,60,,,,,,,,,,,,,,,,,,,,,,3.3124,5.525613983,,,,,,,,,,,,,,,,,,,,,,,,,,,,,,,,,,,,,,,,,,,,,,,,,,,,,,,,,,,,,,,,,,,,,,,,,,,,,,,,,
,,,,,,,5f6318fbbfaddb3c293e6236,23,2023-07-20_20h40.20.805,templeton2A_SD_practice,2020.2.10,Win32,60,,,,,,,,,,,,,,,,,,,,,,3.3292,5.525613983,,,,,,,,,,,,,,,,,,,,,,,,,,,,,,,,,,,,,,,,,,,,,,,,,,,,,,,,,,,,,,,,,,,,,,,,,,,,,,,,,
,,,,,,,5f6318fbbfaddb3c293e6236,23,2023-07-20_20h40.20.805,templeton2A_SD_practice,2020.2.10,Win32,60,,,,,,,,,,,,,,,,,,,,,,3.3458,5.525613983,,,,,,,,,,,,,,,,,,,,,,,,,,,,,,,,,,,,,,,,,,,,,,,,,,,,,,,,,,,,,,,,,,,,,,,,,,,,,,,,,
,,,,,,,5f6318fbbfaddb3c293e6236,23,2023-07-20_20h40.20.805,templeton2A_SD_practice,2020.2.10,Win32,60,,,,,,,,,,,,,,,,,,,,,,3.3623,5.525613983,,,,,,,,,,,,,,,,,,,,,,,,,,,,,,,,,,,,,,,,,,,,,,,,,,,,,,,,,,,,,,,,,,,,,,,,,,,,,,,,,
,,,,,,,5f6318fbbfaddb3c293e6236,23,2023-07-20_20h40.20.805,templeton2A_SD_practice,2020.2.10,Win32,60,,,,,,,,,,,,,,,,,,,,,,3.3791,5.525613983,,,,,,,,,,,,,,,,,,,,,,,,,,,,,,,,,,,,,,,,,,,,,,,,,,,,,,,,,,,,,,,,,,,,,,,,,,,,,,,,,
,,,,,,,5f6318fbbfaddb3c293e6236,23,2023-07-20_20h40.20.805,templeton2A_SD_practice,2020.2.10,Win32,60,,,,,,,,,,,,,,,,,,,,,,3.3956,5.525613983,,,,,,,,,,,,,,,,,,,,,,,,,,,,,,,,,,,,,,,,,,,,,,,,,,,,,,,,,,,,,,,,,,,,,,,,,,,,,,,,,
,,,,,,,5f6318fbbfaddb3c293e6236,23,2023-07-20_20h40.20.805,templeton2A_SD_practice,2020.2.10,Win32,60,,,,,,,,,,,,,,,,,,,,,,3.4126,5.525613983,,,,,,,,,,,,,,,,,,,,,,,,,,,,,,,,,,,,,,,,,,,,,,,,,,,,,,,,,,,,,,,,,,,,,,,,,,,,,,,,,
,,,,,,,5f6318fbbfaddb3c293e6236,23,2023-07-20_20h40.20.805,templeton2A_SD_practice,2020.2.10,Win32,60,,,,,,,,,,,,,,,,,,,,,,3.4286,5.525613983,,,,,,,,,,,,,,,,,,,,,,,,,,,,,,,,,,,,,,,,,,,,,,,,,,,,,,,,,,,,,,,,,,,,,,,,,,,,,,,,,
,,,,,,,5f6318fbbfaddb3c293e6236,23,2023-07-20_20h40.20.805,templeton2A_SD_practice,2020.2.10,Win32,60,,,,,,,,,,,,,,,,,,,,,,3.4455,5.525613983,,,,,,,,,,,,,,,,,,,,,,,,,,,,,,,,,,,,,,,,,,,,,,,,,,,,,,,,,,,,,,,,,,,,,,,,,,,,,,,,,
,,,,,,,5f6318fbbfaddb3c293e6236,23,2023-07-20_20h40.20.805,templeton2A_SD_practice,2020.2.10,Win32,60,,,,,,,,,,,,,,,,,,,,,,3.4623,5.525613983,,,,,,,,,,,,,,,,,,,,,,,,,,,,,,,,,,,,,,,,,,,,,,,,,,,,,,,,,,,,,,,,,,,,,,,,,,,,,,,,,
,,,,,,,5f6318fbbfaddb3c293e6236,23,2023-07-20_20h40.20.805,templeton2A_SD_practice,2020.2.10,Win32,60,,,,,,,,,,,,,,,,,,,,,,3.479,5.525613983,,,,,,,,,,,,,,,,,,,,,,,,,,,,,,,,,,,,,,,,,,,,,,,,,,,,,,,,,,,,,,,,,,,,,,,,,,,,,,,,,
,,,,,,,5f6318fbbfaddb3c293e6236,23,2023-07-20_20h40.20.805,templeton2A_SD_practice,2020.2.10,Win32,60,,,,,,,,,,,,,,,,,,,,,,3.4955,5.525613983,,,,,,,,,,,,,,,,,,,,,,,,,,,,,,,,,,,,,,,,,,,,,,,,,,,,,,,,,,,,,,,,,,,,,,,,,,,,,,,,,
,,,,,,,5f6318fbbfaddb3c293e6236,23,2023-07-20_20h40.20.805,templeton2A_SD_practice,2020.2.10,Win32,60,,,,,,,,,,,,,,,,,,,,,,3.5121,5.525613983,,,,,,,,,,,,,,,,,,,,,,,,,,,,,,,,,,,,,,,,,,,,,,,,,,,,,,,,,,,,,,,,,,,,,,,,,,,,,,,,,
,,,,,,,5f6318fbbfaddb3c293e6236,23,2023-07-20_20h40.20.805,templeton2A_SD_practice,2020.2.10,Win32,60,,,,,,,,,,,,,,,,,,,,,,3.5288,5.525613983,,,,,,,,,,,,,,,,,,,,,,,,,,,,,,,,,,,,,,,,,,,,,,,,,,,,,,,,,,,,,,,,,,,,,,,,,,,,,,,,,
,,,,,,,5f6318fbbfaddb3c293e6236,23,2023-07-20_20h40.20.805,templeton2A_SD_practice,2020.2.10,Win32,60,,,,,,,,,,,,,,,,,,,,,,3.5454,5.525613983,,,,,,,,,,,,,,,,,,,,,,,,,,,,,,,,,,,,,,,,,,,,,,,,,,,,,,,,,,,,,,,,,,,,,,,,,,,,,,,,,
,,,,,,,5f6318fbbfaddb3c293e6236,23,2023-07-20_20h40.20.805,templeton2A_SD_practice,2020.2.10,Win32,60,,,,,,,,,,,,,,,,,,,,,,3.5622,5.525613983,,,,,,,,,,,,,,,,,,,,,,,,,,,,,,,,,,,,,,,,,,,,,,,,,,,,,,,,,,,,,,,,,,,,,,,,,,,,,,,,,
,,,,,,,5f6318fbbfaddb3c293e6236,23,2023-07-20_20h40.20.805,templeton2A_SD_practice,2020.2.10,Win32,60,,,,,,,,,,,,,,,,,,,,,,3.579,5.525613983,,,,,,,,,,,,,,,,,,,,,,,,,,,,,,,,,,,,,,,,,,,,,,,,,,,,,,,,,,,,,,,,,,,,,,,,,,,,,,,,,
,,,,,,,5f6318fbbfaddb3c293e6236,23,2023-07-20_20h40.20.805,templeton2A_SD_practice,2020.2.10,Win32,60,,,,,,,,,,,,,,,,,,,,,,3.5957,5.525613983,,,,,,,,,,,,,,,,,,,,,,,,,,,,,,,,,,,,,,,,,,,,,,,,,,,,,,,,,,,,,,,,,,,,,,,,,,,,,,,,,
,,,,,,,5f6318fbbfaddb3c293e6236,23,2023-07-20_20h40.20.805,templeton2A_SD_practice,2020.2.10,Win32,60,,,,,,,,,,,,,,,,,,,,,,3.6121,5.525613983,,,,,,,,,,,,,,,,,,,,,,,,,,,,,,,,,,,,,,,,,,,,,,,,,,,,,,,,,,,,,,,,,,,,,,,,,,,,,,,,,
,,,,,,,5f6318fbbfaddb3c293e6236,23,2023-07-20_20h40.20.805,templeton2A_SD_practice,2020.2.10,Win32,60,,,,,,,,,,,,,,,,,,,,,,3.6286,5.525613983,,,,,,,,,,,,,,,,,,,,,,,,,,,,,,,,,,,,,,,,,,,,,,,,,,,,,,,,,,,,,,,,,,,,,,,,,,,,,,,,,
,,,,,,,5f6318fbbfaddb3c293e6236,23,2023-07-20_20h40.20.805,templeton2A_SD_practice,2020.2.10,Win32,60,,,,,,,,,,,,,,,,,,,,,,3.6454,5.525613983,,,,,,,,,,,,,,,,,,,,,,,,,,,,,,,,,,,,,,,,,,,,,,,,,,,,,,,,,,,,,,,,,,,,,,,,,,,,,,,,,
,,,,,,,5f6318fbbfaddb3c293e6236,23,2023-07-20_20h40.20.805,templeton2A_SD_practice,2020.2.10,Win32,60,,,,,,,,,,,,,,,,,,,,,,3.6623,5.525613983,,,,,,,,,,,,,,,,,,,,,,,,,,,,,,,,,,,,,,,,,,,,,,,,,,,,,,,,,,,,,,,,,,,,,,,,,,,,,,,,,
,,,,,,,5f6318fbbfaddb3c293e6236,23,2023-07-20_20h40.20.805,templeton2A_SD_practice,2020.2.10,Win32,60,,,,,,,,,,,,,,,,,,,,,,3.6787,5.525613983,,,,,,,,,,,,,,,,,,,,,,,,,,,,,,,,,,,,,,,,,,,,,,,,,,,,,,,,,,,,,,,,,,,,,,,,,,,,,,,,,
,,,,,,,5f6318fbbfaddb3c293e6236,23,2023-07-20_20h40.20.805,templeton2A_SD_practice,2020.2.10,Win32,60,,,,,,,,,,,,,,,,,,,,,,3.6955,5.525613983,,,,,,,,,,,,,,,,,,,,,,,,,,,,,,,,,,,,,,,,,,,,,,,,,,,,,,,,,,,,,,,,,,,,,,,,,,,,,,,,,
,,,,,,,5f6318fbbfaddb3c293e6236,23,2023-07-20_20h40.20.805,templeton2A_SD_practice,2020.2.10,Win32,60,,,,,,,,,,,,,,,,,,,,,,3.7122,5.525613983,,,,,,,,,,,,,,,,,,,,,,,,,,,,,,,,,,,,,,,,,,,,,,,,,,,,,,,,,,,,,,,,,,,,,,,,,,,,,,,,,
,,,,,,,5f6318fbbfaddb3c293e6236,23,2023-07-20_20h40.20.805,templeton2A_SD_practice,2020.2.10,Win32,60,,,,,,,,,,,,,,,,,,,,,,3.7289,5.525613983,,,,,,,,,,,,,,,,,,,,,,,,,,,,,,,,,,,,,,,,,,,,,,,,,,,,,,,,,,,,,,,,,,,,,,,,,,,,,,,,,
,,,,,,,5f6318fbbfaddb3c293e6236,23,2023-07-20_20h40.20.805,templeton2A_SD_practice,2020.2.10,Win32,60,,,,,,,,,,,,,,,,,,,,,,3.7454,5.525613983,,,,,,,,,,,,,,,,,,,,,,,,,,,,,,,,,,,,,,,,,,,,,,,,,,,,,,,,,,,,,,,,,,,,,,,,,,,,,,,,,
,,,,,,,5f6318fbbfaddb3c293e6236,23,2023-07-20_20h40.20.805,templeton2A_SD_practice,2020.2.10,Win32,60,,,,,,,,,,,,,,,,,,,,,,3.7624,5.525613983,,,,,,,,,,,,,,,,,,,,,,,,,,,,,,,,,,,,,,,,,,,,,,,,,,,,,,,,,,,,,,,,,,,,,,,,,,,,,,,,,
,,,,,,,5f6318fbbfaddb3c293e6236,23,2023-07-20_20h40.20.805,templeton2A_SD_practice,2020.2.10,Win32,60,,,,,,,,,,,,,,,,,,,,,,3.7786,5.525613983,,,,,,,,,,,,,,,,,,,,,,,,,,,,,,,,,,,,,,,,,,,,,,,,,,,,,,,,,,,,,,,,,,,,,,,,,,,,,,,,,
,,,,,,,5f6318fbbfaddb3c293e6236,23,2023-07-20_20h40.20.805,templeton2A_SD_practice,2020.2.10,Win32,60,,,,,,,,,,,,,,,,,,,,,,3.7954,5.525613983,,,,,,,,,,,,,,,,,,,,,,,,,,,,,,,,,,,,,,,,,,,,,,,,,,,,,,,,,,,,,,,,,,,,,,,,,,,,,,,,,
,,,,,,,5f6318fbbfaddb3c293e6236,23,2023-07-20_20h40.20.805,templeton2A_SD_practice,2020.2.10,Win32,60,,,,,,,,,,,,,,,,,,,,,,3.8122,5.525613983,,,,,,,,,,,,,,,,,,,,,,,,,,,,,,,,,,,,,,,,,,,,,,,,,,,,,,,,,,,,,,,,,,,,,,,,,,,,,,,,,
,,,,,,,5f6318fbbfaddb3c293e6236,23,2023-07-20_20h40.20.805,templeton2A_SD_practice,2020.2.10,Win32,60,,,,,,,,,,,,,,,,,,,,,,3.8287,5.525613983,,,,,,,,,,,,,,,,,,,,,,,,,,,,,,,,,,,,,,,,,,,,,,,,,,,,,,,,,,,,,,,,,,,,,,,,,,,,,,,,,
,,,,,,,5f6318fbbfaddb3c293e6236,23,2023-07-20_20h40.20.805,templeton2A_SD_practice,2020.2.10,Win32,60,,,,,,,,,,,,,,,,,,,,,,3.8453,5.525613983,,,,,,,,,,,,,,,,,,,,,,,,,,,,,,,,,,,,,,,,,,,,,,,,,,,,,,,,,,,,,,,,,,,,,,,,,,,,,,,,,
,,,,,,,5f6318fbbfaddb3c293e6236,23,2023-07-20_20h40.20.805,templeton2A_SD_practice,2020.2.10,Win32,60,,,,,,,,,,,,,,,,,,,,,,3.8621,5.525613983,,,,,,,,,,,,,,,,,,,,,,,,,,,,,,,,,,,,,,,,,,,,,,,,,,,,,,,,,,,,,,,,,,,,,,,,,,,,,,,,,
,,,,,,,5f6318fbbfaddb3c293e6236,23,2023-07-20_20h40.20.805,templeton2A_SD_practice,2020.2.10,Win32,60,,,,,,,,,,,,,,,,,,,,,,3.8786,5.525613983,,,,,,,,,,,,,,,,,,,,,,,,,,,,,,,,,,,,,,,,,,,,,,,,,,,,,,,,,,,,,,,,,,,,,,,,,,,,,,,,,
,,,,,,,5f6318fbbfaddb3c293e6236,23,2023-07-20_20h40.20.805,templeton2A_SD_practice,2020.2.10,Win32,60,,,,,,,,,,,,,,,,,,,,,,3.8954,5.525613983,,,,,,,,,,,,,,,,,,,,,,,,,,,,,,,,,,,,,,,,,,,,,,,,,,,,,,,,,,,,,,,,,,,,,,,,,,,,,,,,,
,,,,,,,5f6318fbbfaddb3c293e6236,23,2023-07-20_20h40.20.805,templeton2A_SD_practice,2020.2.10,Win32,60,,,,,,,,,,,,,,,,,,,,,,3.9119,5.525613983,,,,,,,,,,,,,,,,,,,,,,,,,,,,,,,,,,,,,,,,,,,,,,,,,,,,,,,,,,,,,,,,,,,,,,,,,,,,,,,,,
,,,,,,,5f6318fbbfaddb3c293e6236,23,2023-07-20_20h40.20.805,templeton2A_SD_practice,2020.2.10,Win32,60,,,,,,,,,,,,,,,,,,,,,,3.9286,5.525613983,,,,,,,,,,,,,,,,,,,,,,,,,,,,,,,,,,,,,,,,,,,,,,,,,,,,,,,,,,,,,,,,,,,,,,,,,,,,,,,,,
,,,,,,,5f6318fbbfaddb3c293e6236,23,2023-07-20_20h40.20.805,templeton2A_SD_practice,2020.2.10,Win32,60,,,,,,,,,,,,,,,,,,,,,,3.9454,5.525613983,,,,,,,,,,,,,,,,,,,,,,,,,,,,,,,,,,,,,,,,,,,,,,,,,,,,,,,,,,,,,,,,,,,,,,,,,,,,,,,,,
,,,,,,,5f6318fbbfaddb3c293e6236,23,2023-07-20_20h40.20.805,templeton2A_SD_practice,2020.2.10,Win32,60,,,,,,,,,,,,,,,,,,,,,,3.962,5.525613983,,,,,,,,,,,,,,,,,,,,,,,,,,,,,,,,,,,,,,,,,,,,,,,,,,,,,,,,,,,,,,,,,,,,,,,,,,,,,,,,,
,,,,,,,5f6318fbbfaddb3c293e6236,23,2023-07-20_20h40.20.805,templeton2A_SD_practice,2020.2.10,Win32,60,,,,,,,,,,,,,,,,,,,,,,3.9786,5.525613983,,,,,,,,,,,,,,,,,,,,,,,,,,,,,,,,,,,,,,,,,,,,,,,,,,,,,,,,,,,,,,,,,,,,,,,,,,,,,,,,,
,,,,,,,5f6318fbbfaddb3c293e6236,23,2023-07-20_20h40.20.805,templeton2A_SD_practice,2020.2.10,Win32,60,,,,,,,,,,,,,,,,,,,,,,3.9952,5.525613983,,,,,,,,,,,,,,,,,,,,,,,,,,,,,,,,,,,,,,,,,,,,,,,,,,,,,,,,,,,,,,,,,,,,,,,,,,,,,,,,,
,,,,,,,5f6318fbbfaddb3c293e6236,23,2023-07-20_20h40.20.805,templeton2A_SD_practice,2020.2.10,Win32,60,,,,,,,,,,,,,,,,,,,,,,4.0119,5.525613983,,,,,,,,,,,,,,,,,,,,,,,,,,,,,,,,,,,,,,,,,,,,,,,,,,,,,,,,,,,,,,,,,,,,,,,,,,,,,,,,,
,,,,,,,5f6318fbbfaddb3c293e6236,23,2023-07-20_20h40.20.805,templeton2A_SD_practice,2020.2.10,Win32,60,,,,,,,,,,,,,,,,,,,,,,4.0286,5.525613983,,,,,,,,,,,,,,,,,,,,,,,,,,,,,,,,,,,,,,,,,,,,,,,,,,,,,,,,,,,,,,,,,,,,,,,,,,,,,,,,,
,,,,,,,5f6318fbbfaddb3c293e6236,23,2023-07-20_20h40.20.805,templeton2A_SD_practice,2020.2.10,Win32,60,,,,,,,,,,,,,,,,,,,,,,4.0453,5.525613983,,,,,,,,,,,,,,,,,,,,,,,,,,,,,,,,,,,,,,,,,,,,,,,,,,,,,,,,,,,,,,,,,,,,,,,,,,,,,,,,,
,,,,,,,5f6318fbbfaddb3c293e6236,23,2023-07-20_20h40.20.805,templeton2A_SD_practice,2020.2.10,Win32,60,,,,,,,,,,,,,,,,,,,,,,4.0618,5.525613983,,,,,,,,,,,,,,,,,,,,,,,,,,,,,,,,,,,,,,,,,,,,,,,,,,,,,,,,,,,,,,,,,,,,,,,,,,,,,,,,,
,,,,,,,5f6318fbbfaddb3c293e6236,23,2023-07-20_20h40.20.805,templeton2A_SD_practice,2020.2.10,Win32,60,,,,,,,,,,,,,,,,,,,,,,4.0786,5.525613983,,,,,,,,,,,,,,,,,,,,,,,,,,,,,,,,,,,,,,,,,,,,,,,,,,,,,,,,,,,,,,,,,,,,,,,,,,,,,,,,,
,,,,,,,5f6318fbbfaddb3c293e6236,23,2023-07-20_20h40.20.805,templeton2A_SD_practice,2020.2.10,Win32,60,,,,,,,,,,,,,,,,,,,,,,4.0952,5.525613983,,,,,,,,,,,,,,,,,,,,,,,,,,,,,,,,,,,,,,,,,,,,,,,,,,,,,,,,,,,,,,,,,,,,,,,,,,,,,,,,,
,,,,,,,5f6318fbbfaddb3c293e6236,23,2023-07-20_20h40.20.805,templeton2A_SD_practice,2020.2.10,Win32,60,,,,,,,,,,,,,,,,,,,,,,4.1122,5.525613983,,,,,,,,,,,,,,,,,,,,,,,,,,,,,,,,,,,,,,,,,,,,,,,,,,,,,,,,,,,,,,,,,,,,,,,,,,,,,,,,,
,,,,,,,5f6318fbbfaddb3c293e6236,23,2023-07-20_20h40.20.805,templeton2A_SD_practice,2020.2.10,Win32,60,,,,,,,,,,,,,,,,,,,,,,4.1285,5.525613983,,,,,,,,,,,,,,,,,,,,,,,,,,,,,,,,,,,,,,,,,,,,,,,,,,,,,,,,,,,,,,,,,,,,,,,,,,,,,,,,,
,,,,,,,5f6318fbbfaddb3c293e6236,23,2023-07-20_20h40.20.805,templeton2A_SD_practice,2020.2.10,Win32,60,,,,,,,,,,,,,,,,,,,,,,4.1451,5.525613983,,,,,,,,,,,,,,,,,,,,,,,,,,,,,,,,,,,,,,,,,,,,,,,,,,,,,,,,,,,,,,,,,,,,,,,,,,,,,,,,,
,,,,,,,5f6318fbbfaddb3c293e6236,23,2023-07-20_20h40.20.805,templeton2A_SD_practice,2020.2.10,Win32,60,,,,,,,,,,,,,,,,,,,,,,4.1621,5.525613983,,,,,,,,,,,,,,,,,,,,,,,,,,,,,,,,,,,,,,,,,,,,,,,,,,,,,,,,,,,,,,,,,,,,,,,,,,,,,,,,,
,,,,,,,5f6318fbbfaddb3c293e6236,23,2023-07-20_20h40.20.805,templeton2A_SD_practice,2020.2.10,Win32,60,,,,,,,,,,,,,,,,,,,,,,4.1784,5.525613983,,,,,,,,,,,,,,,,,,,,,,,,,,,,,,,,,,,,,,,,,,,,,,,,,,,,,,,,,,,,,,,,,,,,,,,,,,,,,,,,,
,,,,,,,5f6318fbbfaddb3c293e6236,23,2023-07-20_20h40.20.805,templeton2A_SD_practice,2020.2.10,Win32,60,,,,,,,,,,,,,,,,,,,,,,4.1951,5.525613983,,,,,,,,,,,,,,,,,,,,,,,,,,,,,,,,,,,,,,,,,,,,,,,,,,,,,,,,,,,,,,,,,,,,,,,,,,,,,,,,,
,,,,,,,5f6318fbbfaddb3c293e6236,23,2023-07-20_20h40.20.805,templeton2A_SD_practice,2020.2.10,Win32,60,,,,,,,,,,,,,,,,,,,,,,4.2118,5.525613983,,,,,,,,,,,,,,,,,,,,,,,,,,,,,,,,,,,,,,,,,,,,,,,,,,,,,,,,,,,,,,,,,,,,,,,,,,,,,,,,,
,,,,,,,5f6318fbbfaddb3c293e6236,23,2023-07-20_20h40.20.805,templeton2A_SD_practice,2020.2.10,Win32,60,,,,,,,,,,,,,,,,,,,,,,4.2287,5.525613983,,,,,,,,,,,,,,,,,,,,,,,,,,,,,,,,,,,,,,,,,,,,,,,,,,,,,,,,,,,,,,,,,,,,,,,,,,,,,,,,,
,,,,,,,5f6318fbbfaddb3c293e6236,23,2023-07-20_20h40.20.805,templeton2A_SD_practice,2020.2.10,Win32,60,,,,,,,,,,,,,,,,,,,,,,4.2451,5.525613983,,,,,,,,,,,,,,,,,,,,,,,,,,,,,,,,,,,,,,,,,,,,,,,,,,,,,,,,,,,,,,,,,,,,,,,,,,,,,,,,,
,,,,,,,5f6318fbbfaddb3c293e6236,23,2023-07-20_20h40.20.805,templeton2A_SD_practice,2020.2.10,Win32,60,,,,,,,,,,,,,,,,,,,,,,4.2618,5.525613983,,,,,,,,,,,,,,,,,,,,,,,,,,,,,,,,,,,,,,,,,,,,,,,,,,,,,,,,,,,,,,,,,,,,,,,,,,,,,,,,,
,,,,,,,5f6318fbbfaddb3c293e6236,23,2023-07-20_20h40.20.805,templeton2A_SD_practice,2020.2.10,Win32,60,,,,,,,,,,,,,,,,,,,,,,4.2786,5.525613983,,,,,,,,,,,,,,,,,,,,,,,,,,,,,,,,,,,,,,,,,,,,,,,,,,,,,,,,,,,,,,,,,,,,,,,,,,,,,,,,,
,,,,,,,5f6318fbbfaddb3c293e6236,23,2023-07-20_20h40.20.805,templeton2A_SD_practice,2020.2.10,Win32,60,,,,,,,,,,,,,,,,,,,,,,4.2952,5.525613983,,,,,,,,,,,,,,,,,,,,,,,,,,,,,,,,,,,,,,,,,,,,,,,,,,,,,,,,,,,,,,,,,,,,,,,,,,,,,,,,,
,,,,,,,5f6318fbbfaddb3c293e6236,23,2023-07-20_20h40.20.805,templeton2A_SD_practice,2020.2.10,Win32,60,,,,,,,,,,,,,,,,,,,,,,4.3118,5.525613983,,,,,,,,,,,,,,,,,,,,,,,,,,,,,,,,,,,,,,,,,,,,,,,,,,,,,,,,,,,,,,,,,,,,,,,,,,,,,,,,,
,,,,,,,5f6318fbbfaddb3c293e6236,23,2023-07-20_20h40.20.805,templeton2A_SD_practice,2020.2.10,Win32,60,,,,,,,,,,,,,,,,,,,,,,4.3286,5.525613983,,,,,,,,,,,,,,,,,,,,,,,,,,,,,,,,,,,,,,,,,,,,,,,,,,,,,,,,,,,,,,,,,,,,,,,,,,,,,,,,,
,,,,,,,5f6318fbbfaddb3c293e6236,23,2023-07-20_20h40.20.805,templeton2A_SD_practice,2020.2.10,Win32,60,,,,,,,,,,,,,,,,,,,,,,4.3452,5.525613983,,,,,,,,,,,,,,,,,,,,,,,,,,,,,,,,,,,,,,,,,,,,,,,,,,,,,,,,,,,,,,,,,,,,,,,,,,,,,,,,,
,,,,,,,5f6318fbbfaddb3c293e6236,23,2023-07-20_20h40.20.805,templeton2A_SD_practice,2020.2.10,Win32,60,,,,,,,,,,,,,,,,,,,,,,4.3618,5.525613983,,,,,,,,,,,,,,,,,,,,,,,,,,,,,,,,,,,,,,,,,,,,,,,,,,,,,,,,,,,,,,,,,,,,,,,,,,,,,,,,,
,,,,,,,5f6318fbbfaddb3c293e6236,23,2023-07-20_20h40.20.805,templeton2A_SD_practice,2020.2.10,Win32,60,,,,,,,,,,,,,,,,,,,,,,4.3786,5.525613983,,,,,,,,,,,,,,,,,,,,,,,,,,,,,,,,,,,,,,,,,,,,,,,,,,,,,,,,,,,,,,,,,,,,,,,,,,,,,,,,,
,,,,,,,5f6318fbbfaddb3c293e6236,23,2023-07-20_20h40.20.805,templeton2A_SD_practice,2020.2.10,Win32,60,,,,,,,,,,,,,,,,,,,,,,4.3952,5.525613983,,,,,,,,,,,,,,,,,,,,,,,,,,,,,,,,,,,,,,,,,,,,,,,,,,,,,,,,,,,,,,,,,,,,,,,,,,,,,,,,,
,,,,,,,5f6318fbbfaddb3c293e6236,23,2023-07-20_20h40.20.805,templeton2A_SD_practice,2020.2.10,Win32,60,,,,,,,,,,,,,,,,,,,,,,4.4119,5.525613983,,,,,,,,,,,,,,,,,,,,,,,,,,,,,,,,,,,,,,,,,,,,,,,,,,,,,,,,,,,,,,,,,,,,,,,,,,,,,,,,,
,,,,,,,5f6318fbbfaddb3c293e6236,23,2023-07-20_20h40.20.805,templeton2A_SD_practice,2020.2.10,Win32,60,,,,,,,,,,,,,,,,,,,,,,4.4282,5.525613983,,,,,,,,,,,,,,,,,,,,,,,,,,,,,,,,,,,,,,,,,,,,,,,,,,,,,,,,,,,,,,,,,,,,,,,,,,,,,,,,,
,,,,,,,5f6318fbbfaddb3c293e6236,23,2023-07-20_20h40.20.805,templeton2A_SD_practice,2020.2.10,Win32,60,,,,,,,,,,,,,,,,,,,,,,4.4449,5.525613983,,,,,,,,,,,,,,,,,,,,,,,,,,,,,,,,,,,,,,,,,,,,,,,,,,,,,,,,,,,,,,,,,,,,,,,,,,,,,,,,,
,,,,,,,5f6318fbbfaddb3c293e6236,23,2023-07-20_20h40.20.805,templeton2A_SD_practice,2020.2.10,Win32,60,,,,,,,,,,,,,,,,,,,,,,4.4618,5.525613983,,,,,,,,,,,,,,,,,,,,,,,,,,,,,,,,,,,,,,,,,,,,,,,,,,,,,,,,,,,,,,,,,,,,,,,,,,,,,,,,,
,,,,,,,5f6318fbbfaddb3c293e6236,23,2023-07-20_20h40.20.805,templeton2A_SD_practice,2020.2.10,Win32,60,,,,,,,,,,,,,,,,,,,,,,4.4785,5.525613983,,,,,,,,,,,,,,,,,,,,,,,,,,,,,,,,,,,,,,,,,,,,,,,,,,,,,,,,,,,,,,,,,,,,,,,,,,,,,,,,,
,,,,,,,5f6318fbbfaddb3c293e6236,23,2023-07-20_20h40.20.805,templeton2A_SD_practice,2020.2.10,Win32,60,,,,,,,,,,,,,,,,,,,,,,4.4951,5.525613983,,,,,,,,,,,,,,,,,,,,,,,,,,,,,,,,,,,,,,,,,,,,,,,,,,,,,,,,,,,,,,,,,,,,,,,,,,,,,,,,,
,,,,,,,5f6318fbbfaddb3c293e6236,23,2023-07-20_20h40.20.805,templeton2A_SD_practice,2020.2.10,Win32,60,,,,,,,,,,,,,,,,,,,,,,4.5116,5.525613983,,,,,,,,,,,,,,,,,,,,,,,,,,,,,,,,,,,,,,,,,,,,,,,,,,,,,,,,,,,,,,,,,,,,,,,,,,,,,,,,,
,,,,,,,5f6318fbbfaddb3c293e6236,23,2023-07-20_20h40.20.805,templeton2A_SD_practice,2020.2.10,Win32,60,,,,,,,,,,,,,,,,,,,,,,4.5282,5.525613983,,,,,,,,,,,,,,,,,,,,,,,,,,,,,,,,,,,,,,,,,,,,,,,,,,,,,,,,,,,,,,,,,,,,,,,,,,,,,,,,,
,,,,,,,5f6318fbbfaddb3c293e6236,23,2023-07-20_20h40.20.805,templeton2A_SD_practice,2020.2.10,Win32,60,,,,,,,,,,,,,,,,,,,,,,4.5448,5.525613983,,,,,,,,,,,,,,,,,,,,,,,,,,,,,,,,,,,,,,,,,,,,,,,,,,,,,,,,,,,,,,,,,,,,,,,,,,,,,,,,,
,,,,,,,5f6318fbbfaddb3c293e6236,23,2023-07-20_20h40.20.805,templeton2A_SD_practice,2020.2.10,Win32,60,,,,,,,,,,,,,,,,,,,,,,4.5617,5.525613983,,,,,,,,,,,,,,,,,,,,,,,,,,,,,,,,,,,,,,,,,,,,,,,,,,,,,,,,,,,,,,,,,,,,,,,,,,,,,,,,,
,,,,,,,5f6318fbbfaddb3c293e6236,23,2023-07-20_20h40.20.805,templeton2A_SD_practice,2020.2.10,Win32,60,,,,,,,,,,,,,,,,,,,,,,4.5783,5.525613983,,,,,,,,,,,,,,,,,,,,,,,,,,,,,,,,,,,,,,,,,,,,,,,,,,,,,,,,,,,,,,,,,,,,,,,,,,,,,,,,,
,,,,,,,5f6318fbbfaddb3c293e6236,23,2023-07-20_20h40.20.805,templeton2A_SD_practice,2020.2.10,Win32,60,,,,,,,,,,,,,,,,,,,,,,4.5951,5.525613983,,,,,,,,,,,,,,,,,,,,,,,,,,,,,,,,,,,,,,,,,,,,,,,,,,,,,,,,,,,,,,,,,,,,,,,,,,,,,,,,,
,,,,,,,5f6318fbbfaddb3c293e6236,23,2023-07-20_20h40.20.805,templeton2A_SD_practice,2020.2.10,Win32,60,,,,,,,,,,,,,,,,,,,,,,4.6119,5.525613983,,,,,,,,,,,,,,,,,,,,,,,,,,,,,,,,,,,,,,,,,,,,,,,,,,,,,,,,,,,,,,,,,,,,,,,,,,,,,,,,,
,,,,,,,5f6318fbbfaddb3c293e6236,23,2023-07-20_20h40.20.805,templeton2A_SD_practice,2020.2.10,Win32,60,,,,,,,,,,,,,,,,,,,,,,4.6285,5.525613983,,,,,,,,,,,,,,,,,,,,,,,,,,,,,,,,,,,,,,,,,,,,,,,,,,,,,,,,,,,,,,,,,,,,,,,,,,,,,,,,,
,,,,,,,5f6318fbbfaddb3c293e6236,23,2023-07-20_20h40.20.805,templeton2A_SD_practice,2020.2.10,Win32,60,,,,,,,,,,,,,,,,,,,,,,4.6452,5.525613983,,,,,,,,,,,,,,,,,,,,,,,,,,,,,,,,,,,,,,,,,,,,,,,,,,,,,,,,,,,,,,,,,,,,,,,,,,,,,,,,,
,,,,,,,5f6318fbbfaddb3c293e6236,23,2023-07-20_20h40.20.805,templeton2A_SD_practice,2020.2.10,Win32,60,,,,,,,,,,,,,,,,,,,,,,4.6616,5.525613983,,,,,,,,,,,,,,,,,,,,,,,,,,,,,,,,,,,,,,,,,,,,,,,,,,,,,,,,,,,,,,,,,,,,,,,,,,,,,,,,,
,,,,,,,5f6318fbbfaddb3c293e6236,23,2023-07-20_20h40.20.805,templeton2A_SD_practice,2020.2.10,Win32,60,,,,,,,,,,,,,,,,,,,,,,4.6783,5.525613983,,,,,,,,,,,,,,,,,,,,,,,,,,,,,,,,,,,,,,,,,,,,,,,,,,,,,,,,,,,,,,,,,,,,,,,,,,,,,,,,,
,,,,,,,5f6318fbbfaddb3c293e6236,23,2023-07-20_20h40.20.805,templeton2A_SD_practice,2020.2.10,Win32,60,,,,,,,,,,,,,,,,,,,,,,4.695,5.525613983,,,,,,,,,,,,,,,,,,,,,,,,,,,,,,,,,,,,,,,,,,,,,,,,,,,,,,,,,,,,,,,,,,,,,,,,,,,,,,,,,
,,,,,,,5f6318fbbfaddb3c293e6236,23,2023-07-20_20h40.20.805,templeton2A_SD_practice,2020.2.10,Win32,60,,,,,,,,,,,,,,,,,,,,,,4.7115,5.525613983,,,,,,,,,,,,,,,,,,,,,,,,,,,,,,,,,,,,,,,,,,,,,,,,,,,,,,,,,,,,,,,,,,,,,,,,,,,,,,,,,
,,,,,,,5f6318fbbfaddb3c293e6236,23,2023-07-20_20h40.20.805,templeton2A_SD_practice,2020.2.10,Win32,60,,,,,,,,,,,,,,,,,,,,,,4.7283,5.525613983,,,,,,,,,,,,,,,,,,,,,,,,,,,,,,,,,,,,,,,,,,,,,,,,,,,,,,,,,,,,,,,,,,,,,,,,,,,,,,,,,
,,,,,,,5f6318fbbfaddb3c293e6236,23,2023-07-20_20h40.20.805,templeton2A_SD_practice,2020.2.10,Win32,60,,,,,,,,,,,,,,,,,,,,,,4.7449,5.525613983,,,,,,,,,,,,,,,,,,,,,,,,,,,,,,,,,,,,,,,,,,,,,,,,,,,,,,,,,,,,,,,,,,,,,,,,,,,,,,,,,
,,,,,,,5f6318fbbfaddb3c293e6236,23,2023-07-20_20h40.20.805,templeton2A_SD_practice,2020.2.10,Win32,60,,,,,,,,,,,,,,,,,,,,,,4.7616,5.525613983,,,,,,,,,,,,,,,,,,,,,,,,,,,,,,,,,,,,,,,,,,,,,,,,,,,,,,,,,,,,,,,,,,,,,,,,,,,,,,,,,
,,,,,,,5f6318fbbfaddb3c293e6236,23,2023-07-20_20h40.20.805,templeton2A_SD_practice,2020.2.10,Win32,60,,,,,,,,,,,,,,,,,,,,,,4.7783,5.525613983,,,,,,,,,,,,,,,,,,,,,,,,,,,,,,,,,,,,,,,,,,,,,,,,,,,,,,,,,,,,,,,,,,,,,,,,,,,,,,,,,
,,,,,,,5f6318fbbfaddb3c293e6236,23,2023-07-20_20h40.20.805,templeton2A_SD_practice,2020.2.10,Win32,60,,,,,,,,,,,,,,,,,,,,,,4.7948,5.525613983,,,,,,,,,,,,,,,,,,,,,,,,,,,,,,,,,,,,,,,,,,,,,,,,,,,,,,,,,,,,,,,,,,,,,,,,,,,,,,,,,
,,,,,,,5f6318fbbfaddb3c293e6236,23,2023-07-20_20h40.20.805,templeton2A_SD_practice,2020.2.10,Win32,60,,,,,,,,,,,,,,,,,,,,,,4.8113,5.525613983,,,,,,,,,,,,,,,,,,,,,,,,,,,,,,,,,,,,,,,,,,,,,,,,,,,,,,,,,,,,,,,,,,,,,,,,,,,,,,,,,
,,,,,,,5f6318fbbfaddb3c293e6236,23,2023-07-20_20h40.20.805,templeton2A_SD_practice,2020.2.10,Win32,60,,,,,,,,,,,,,,,,,,,,,,4.8279,5.525613983,,,,,,,,,,,,,,,,,,,,,,,,,,,,,,,,,,,,,,,,,,,,,,,,,,,,,,,,,,,,,,,,,,,,,,,,,,,,,,,,,
,,,,,,,5f6318fbbfaddb3c293e6236,23,2023-07-20_20h40.20.805,templeton2A_SD_practice,2020.2.10,Win32,60,,,,,,,,,,,,,,,,,,,,,,4.8444,5.525613983,,,,,,,,,,,,,,,,,,,,,,,,,,,,,,,,,,,,,,,,,,,,,,,,,,,,,,,,,,,,,,,,,,,,,,,,,,,,,,,,,
,,,,,,,5f6318fbbfaddb3c293e6236,23,2023-07-20_20h40.20.805,templeton2A_SD_practice,2020.2.10,Win32,60,,,,,,,,,,,,,,,,,,,,,,4.8611,5.525613983,,,,,,,,,,,,,,,,,,,,,,,,,,,,,,,,,,,,,,,,,,,,,,,,,,,,,,,,,,,,,,,,,,,,,,,,,,,,,,,,,
,,,,,,,5f6318fbbfaddb3c293e6236,23,2023-07-20_20h40.20.805,templeton2A_SD_practice,2020.2.10,Win32,60,,,,,,,,,,,,,,,,,,,,,,4.878,5.525613983,,,,,,,,,,,,,,,,,,,,,,,,,,,,,,,,,,,,,,,,,,,,,,,,,,,,,,,,,,,,,,,,,,,,,,,,,,,,,,,,,
,,,,,,,5f6318fbbfaddb3c293e6236,23,2023-07-20_20h40.20.805,templeton2A_SD_practice,2020.2.10,Win32,60,,,,,,,,,,,,,,,,,,,,,,4.8947,5.525613983,,,,,,,,,,,,,,,,,,,,,,,,,,,,,,,,,,,,,,,,,,,,,,,,,,,,,,,,,,,,,,,,,,,,,,,,,,,,,,,,,
,,,,,,,5f6318fbbfaddb3c293e6236,23,2023-07-20_20h40.20.805,templeton2A_SD_practice,2020.2.10,Win32,60,,,,,,,,,,,,,,,,,,,,,,4.9115,5.525613983,,,,,,,,,,,,,,,,,,,,,,,,,,,,,,,,,,,,,,,,,,,,,,,,,,,,,,,,,,,,,,,,,,,,,,,,,,,,,,,,,
,,,,,,,5f6318fbbfaddb3c293e6236,23,2023-07-20_20h40.20.805,templeton2A_SD_practice,2020.2.10,Win32,60,,,,,,,,,,,,,,,,,,,,,,4.928,5.525613983,,,,,,,,,,,,,,,,,,,,,,,,,,,,,,,,,,,,,,,,,,,,,,,,,,,,,,,,,,,,,,,,,,,,,,,,,,,,,,,,,
,,,,,,,5f6318fbbfaddb3c293e6236,23,2023-07-20_20h40.20.805,templeton2A_SD_practice,2020.2.10,Win32,60,,,,,,,,,,,,,,,,,,,,,,4.9447,5.525613983,,,,,,,,,,,,,,,,,,,,,,,,,,,,,,,,,,,,,,,,,,,,,,,,,,,,,,,,,,,,,,,,,,,,,,,,,,,,,,,,,
,,,,,,,5f6318fbbfaddb3c293e6236,23,2023-07-20_20h40.20.805,templeton2A_SD_practice,2020.2.10,Win32,60,,,,,,,,,,,,,,,,,,,,,,4.9613,5.525613983,,,,,,,,,,,,,,,,,,,,,,,,,,,,,,,,,,,,,,,,,,,,,,,,,,,,,,,,,,,,,,,,,,,,,,,,,,,,,,,,,
,,,,,,,5f6318fbbfaddb3c293e6236,23,2023-07-20_20h40.20.805,templeton2A_SD_practice,2020.2.10,Win32,60,,,,,,,,,,,,,,,,,,,,,,4.9781,5.525613983,,,,,,,,,,,,,,,,,,,,,,,,,,,,,,,,,,,,,,,,,,,,,,,,,,,,,,,,,,,,,,,,,,,,,,,,,,,,,,,,,
,,,,,,,5f6318fbbfaddb3c293e6236,23,2023-07-20_20h40.20.805,templeton2A_SD_practice,2020.2.10,Win32,60,,,,,,,,,,,,,,,,,,,,,,4.9947,5.525613983,,,,,,,,,,,,,,,,,,,,,,,,,,,,,,,,,,,,,,,,,,,,,,,,,,,,,,,,,,,,,,,,,,,,,,,,,,,,,,,,,
,,,,,,,5f6318fbbfaddb3c293e6236,23,2023-07-20_20h40.20.805,templeton2A_SD_practice,2020.2.10,Win32,60,,,,,,,,,,,,,,,,,,,,,,5.0116,5.525613983,,,,,,,,,,,,,,,,,,,,,,,,,,,,,,,,,,,,,,,,,,,,,,,,,,,,,,,,,,,,,,,,,,,,,,,,,,,,,,,,,
,,,,,,,5f6318fbbfaddb3c293e6236,23,2023-07-20_20h40.20.805,templeton2A_SD_practice,2020.2.10,Win32,60,,,,,,,,,,,,,,,,,,,,,,5.028,5.525613983,,,,,,,,,,,,,,,,,,,,,,,,,,,,,,,,,,,,,,,,,,,,,,,,,,,,,,,,,,,,,,,,,,,,,,,,,,,,,,,,,
,,,,,,,5f6318fbbfaddb3c293e6236,23,2023-07-20_20h40.20.805,templeton2A_SD_practice,2020.2.10,Win32,60,,,,,,,,,,,,,,,,,,,,,,5.0448,5.525613983,,,,,,,,,,,,,,,,,,,,,,,,,,,,,,,,,,,,,,,,,,,,,,,,,,,,,,,,,,,,,,,,,,,,,,,,,,,,,,,,,
,,,,,,,5f6318fbbfaddb3c293e6236,23,2023-07-20_20h40.20.805,templeton2A_SD_practice,2020.2.10,Win32,60,,,,,,,,,,,,,,,,,,,,,,5.0615,5.525613983,,,,,,,,,,,,,,,,,,,,,,,,,,,,,,,,,,,,,,,,,,,,,,,,,,,,,,,,,,,,,,,,,,,,,,,,,,,,,,,,,
,,,,,,,5f6318fbbfaddb3c293e6236,23,2023-07-20_20h40.20.805,templeton2A_SD_practice,2020.2.10,Win32,60,,,,,,,,,,,,,,,,,,,,,,5.0783,5.525613983,,,,,,,,,,,,,,,,,,,,,,,,,,,,,,,,,,,,,,,,,,,,,,,,,,,,,,,,,,,,,,,,,,,,,,,,,,,,,,,,,
,,,,,,,5f6318fbbfaddb3c293e6236,23,2023-07-20_20h40.20.805,templeton2A_SD_practice,2020.2.10,Win32,60,,,,,,,,,,,,,,,,,,,,,,5.0949,5.525613983,,,,,,,,,,,,,,,,,,,,,,,,,,,,,,,,,,,,,,,,,,,,,,,,,,,,,,,,,,,,,,,,,,,,,,,,,,,,,,,,,
,,,,,,,5f6318fbbfaddb3c293e6236,23,2023-07-20_20h40.20.805,templeton2A_SD_practice,2020.2.10,Win32,60,,,,,,,,,,,,,,,,,,,,,,5.1116,5.525613983,,,,,,,,,,,,,,,,,,,,,,,,,,,,,,,,,,,,,,,,,,,,,,,,,,,,,,,,,,,,,,,,,,,,,,,,,,,,,,,,,
,,,,,,,5f6318fbbfaddb3c293e6236,23,2023-07-20_20h40.20.805,templeton2A_SD_practice,2020.2.10,Win32,60,,,,,,,,,,,,,,,,,,,,,,5.1283,5.525613983,,,,,,,,,,,,,,,,,,,,,,,,,,,,,,,,,,,,,,,,,,,,,,,,,,,,,,,,,,,,,,,,,,,,,,,,,,,,,,,,,
,,,,,,,5f6318fbbfaddb3c293e6236,23,2023-07-20_20h40.20.805,templeton2A_SD_practice,2020.2.10,Win32,60,,,,,,,,,,,,,,,,,,,,,,5.1448,5.525613983,,,,,,,,,,,,,,,,,,,,,,,,,,,,,,,,,,,,,,,,,,,,,,,,,,,,,,,,,,,,,,,,,,,,,,,,,,,,,,,,,
,,,,,,,5f6318fbbfaddb3c293e6236,23,2023-07-20_20h40.20.805,templeton2A_SD_practice,2020.2.10,Win32,60,,,,,,,,,,,,,,,,,,,,,,5.1616,5.525613983,,,,,,,,,,,,,,,,,,,,,,,,,,,,,,,,,,,,,,,,,,,,,,,,,,,,,,,,,,,,,,,,,,,,,,,,,,,,,,,,,
,,,,,,,5f6318fbbfaddb3c293e6236,23,2023-07-20_20h40.20.805,templeton2A_SD_practice,2020.2.10,Win32,60,,,,,,,,,,,,,,,,,,,,,,5.1781,5.525613983,,,,,,,,,,,,,,,,,,,,,,,,,,,,,,,,,,,,,,,,,,,,,,,,,,,,,,,,,,,,,,,,,,,,,,,,,,,,,,,,,
,,,,,,,5f6318fbbfaddb3c293e6236,23,2023-07-20_20h40.20.805,templeton2A_SD_practice,2020.2.10,Win32,60,,,,,,,,,,,,,,,,,,,,,,5.195,5.525613983,,,,,,,,,,,,,,,,,,,,,,,,,,,,,,,,,,,,,,,,,,,,,,,,,,,,,,,,,,,,,,,,,,,,,,,,,,,,,,,,,
,,,,,,,5f6318fbbfaddb3c293e6236,23,2023-07-20_20h40.20.805,templeton2A_SD_practice,2020.2.10,Win32,60,,,,,,,,,,,,,,,,,,,,,,5.2115,5.525613983,,,,,,,,,,,,,,,,,,,,,,,,,,,,,,,,,,,,,,,,,,,,,,,,,,,,,,,,,,,,,,,,,,,,,,,,,,,,,,,,,
,,,,,,,5f6318fbbfaddb3c293e6236,23,2023-07-20_20h40.20.805,templeton2A_SD_practice,2020.2.10,Win32,60,,,,,,,,,,,,,,,,,,,,,,5.2282,5.525613983,,,,,,,,,,,,,,,,,,,,,,,,,,,,,,,,,,,,,,,,,,,,,,,,,,,,,,,,,,,,,,,,,,,,,,,,,,,,,,,,,
,,,,,,,5f6318fbbfaddb3c293e6236,23,2023-07-20_20h40.20.805,templeton2A_SD_practice,2020.2.10,Win32,60,,,,,,,,,,,,,,,,,,,,,,5.2448,5.525613983,,,,,,,,,,,,,,,,,,,,,,,,,,,,,,,,,,,,,,,,,,,,,,,,,,,,,,,,,,,,,,,,,,,,,,,,,,,,,,,,,
,,,,,,,5f6318fbbfaddb3c293e6236,23,2023-07-20_20h40.20.805,templeton2A_SD_practice,2020.2.10,Win32,60,,,,,,,,,,,,,,,,,,,,,,5.2616,5.525613983,,,,,,,,,,,,,,,,,,,,,,,,,,,,,,,,,,,,,,,,,,,,,,,,,,,,,,,,,,,,,,,,,,,,,,,,,,,,,,,,,
,,,,,,,5f6318fbbfaddb3c293e6236,23,2023-07-20_20h40.20.805,templeton2A_SD_practice,2020.2.10,Win32,60,,,,,,,,,,,,,,,,,,,,,,5.2781,5.525613983,,,,,,,,,,,,,,,,,,,,,,,,,,,,,,,,,,,,,,,,,,,,,,,,,,,,,,,,,,,,,,,,,,,,,,,,,,,,,,,,,
,,,,,,,5f6318fbbfaddb3c293e6236,23,2023-07-20_20h40.20.805,templeton2A_SD_practice,2020.2.10,Win32,60,,,,,,,,,,,,,,,,,,,,,,5.2948,5.525613983,,,,,,,,,,,,,,,,,,,,,,,,,,,,,,,,,,,,,,,,,,,,,,,,,,,,,,,,,,,,,,,,,,,,,,,,,,,,,,,,,
,,,,,,,5f6318fbbfaddb3c293e6236,23,2023-07-20_20h40.20.805,templeton2A_SD_practice,2020.2.10,Win32,60,,,,,,,,,,,,,,,,,,,,,,5.3115,5.525613983,,,,,,,,,,,,,,,,,,,,,,,,,,,,,,,,,,,,,,,,,,,,,,,,,,,,,,,,,,,,,,,,,,,,,,,,,,,,,,,,,
,,,,,,,5f6318fbbfaddb3c293e6236,23,2023-07-20_20h40.20.805,templeton2A_SD_practice,2020.2.10,Win32,60,,,,,,,,,,,,,,,,,,,,,,5.3279,5.525613983,,,,,,,,,,,,,,,,,,,,,,,,,,,,,,,,,,,,,,,,,,,,,,,,,,,,,,,,,,,,,,,,,,,,,,,,,,,,,,,,,
,,,,,,,5f6318fbbfaddb3c293e6236,23,2023-07-20_20h40.20.805,templeton2A_SD_practice,2020.2.10,Win32,60,,,,,,,,,,,,,,,,,,,,,,5.3446,5.525613983,,,,,,,,,,,,,,,,,,,,,,,,,,,,,,,,,,,,,,,,,,,,,,,,,,,,,,,,,,,,,,,,,,,,,,,,,,,,,,,,,
,,,,,,,5f6318fbbfaddb3c293e6236,23,2023-07-20_20h40.20.805,templeton2A_SD_practice,2020.2.10,Win32,60,,,,,,,,,,,,,,,,,,,,,,5.3614,5.525613983,,,,,,,,,,,,,,,,,,,,,,,,,,,,,,,,,,,,,,,,,,,,,,,,,,,,,,,,,,,,,,,,,,,,,,,,,,,,,,,,,
,,,,,,,5f6318fbbfaddb3c293e6236,23,2023-07-20_20h40.20.805,templeton2A_SD_practice,2020.2.10,Win32,60,,,,,,,,,,,,,,,,,,,,,,5.378,5.525613983,,,,,,,,,,,,,,,,,,,,,,,,,,,,,,,,,,,,,,,,,,,,,,,,,,,,,,,,,,,,,,,,,,,,,,,,,,,,,,,,,
,,,,,,,5f6318fbbfaddb3c293e6236,23,2023-07-20_20h40.20.805,templeton2A_SD_practice,2020.2.10,Win32,60,,,,,,,,,,,,,,,,,,,,,,5.3947,5.525613983,,,,,,,,,,,,,,,,,,,,,,,,,,,,,,,,,,,,,,,,,,,,,,,,,,,,,,,,,,,,,,,,,,,,,,,,,,,,,,,,,
,,,,,,,5f6318fbbfaddb3c293e6236,23,2023-07-20_20h40.20.805,templeton2A_SD_practice,2020.2.10,Win32,60,,,,,,,,,,,,,,,,,,,,,,5.4114,5.525613983,,,,,,,,,,,,,,,,,,,,,,,,,,,,,,,,,,,,,,,,,,,,,,,,,,,,,,,,,,,,,,,,,,,,,,,,,,,,,,,,,
,,,,,,,5f6318fbbfaddb3c293e6236,23,2023-07-20_20h40.20.805,templeton2A_SD_practice,2020.2.10,Win32,60,,,,,,,,,,,,,,,,,,,,,,5.4281,5.525613983,,,,,,,,,,,,,,,,,,,,,,,,,,,,,,,,,,,,,,,,,,,,,,,,,,,,,,,,,,,,,,,,,,,,,,,,,,,,,,,,,
,,,,,,,5f6318fbbfaddb3c293e6236,23,2023-07-20_20h40.20.805,templeton2A_SD_practice,2020.2.10,Win32,60,,,,,,,,,,,,,,,,,,,,,,5.4445,5.525613983,,,,,,,,,,,,,,,,,,,,,,,,,,,,,,,,,,,,,,,,,,,,,,,,,,,,,,,,,,,,,,,,,,,,,,,,,,,,,,,,,
,,,,,,,5f6318fbbfaddb3c293e6236,23,2023-07-20_20h40.20.805,templeton2A_SD_practice,2020.2.10,Win32,60,,,,,,,,,,,,,,,,,,,,,,5.4612,5.525613983,,,,,,,,,,,,,,,,,,,,,,,,,,,,,,,,,,,,,,,,,,,,,,,,,,,,,,,,,,,,,,,,,,,,,,,,,,,,,,,,,
,,,,,,,5f6318fbbfaddb3c293e6236,23,2023-07-20_20h40.20.805,templeton2A_SD_practice,2020.2.10,Win32,60,,,,,,,,,,,,,,,,,,,,,,5.4777,5.525613983,,,,,,,,,,,,,,,,,,,,,,,,,,,,,,,,,,,,,,,,,,,,,,,,,,,,,,,,,,,,,,,,,,,,,,,,,,,,,,,,,
,,,,,,,5f6318fbbfaddb3c293e6236,23,2023-07-20_20h40.20.805,templeton2A_SD_practice,2020.2.10,Win32,60,,,,,,,,,,,,,,,,,,,,,,5.4944,5.525613983,,,,,,,,,,,,,,,,,,,,,,,,,,,,,,,,,,,,,,,,,,,,,,,,,,,,,,,,,,,,,,,,,,,,,,,,,,,,,,,,,
,,,,,,,5f6318fbbfaddb3c293e6236,23,2023-07-20_20h40.20.805,templeton2A_SD_practice,2020.2.10,Win32,60,,,,,,,,,,,,,,,,,,,,,,5.5111,5.525613983,,,,,,,,,,,,,,,,,,,,,,,,,,,,,,,,,,,,,,,,,,,,,,,,,,,,,,,,,,,,,,,,,,,,,,,,,,,,,,,,,
,,,,,,,5f6318fbbfaddb3c293e6236,23,2023-07-20_20h40.20.805,templeton2A_SD_practice,2020.2.10,Win32,60,,,,,,,,,,,,,,,,,,,,,,5.5277,5.525613983,,,,,,,,,,,,,,,,,,,,,,,,,,,,,,,,,,,,,,,,,,,,,,,,,,,,,,,,,,,,,,,,,,,,,,,,,,,,,,,,,
,,,,,,,5f6318fbbfaddb3c293e6236,23,2023-07-20_20h40.20.805,templeton2A_SD_practice,2020.2.10,Win32,60,,,,,,,,,,,,,,,,,,,,,,5.5447,5.525613983,,,,,,,,,,,,,,,,,,,,,,,,,,,,,,,,,,,,,,,,,,,,,,,,,,,,,,,,,,,,,,,,,,,,,,,,,,,,,,,,,
,,,,,,,5f6318fbbfaddb3c293e6236,23,2023-07-20_20h40.20.805,templeton2A_SD_practice,2020.2.10,Win32,60,,,,,,,,,,,,,,,,,,,,,,5.5612,5.525613983,,,,,,,,,,,,,,,,,,,,,,,,,,,,,,,,,,,,,,,,,,,,,,,,,,,,,,,,,,,,,,,,,,,,,,,,,,,,,,,,,
,,,,,,,5f6318fbbfaddb3c293e6236,23,2023-07-20_20h40.20.805,templeton2A_SD_practice,2020.2.10,Win32,60,,,,,,,,,,,,,,,,,,,,,,5.578,5.525613983,,,,,,,,,,,,,,,,,,,,,,,,,,,,,,,,,,,,,,,,,,,,,,,,,,,,,,,,,,,,,,,,,,,,,,,,,,,,,,,,,
,,,,,,,5f6318fbbfaddb3c293e6236,23,2023-07-20_20h40.20.805,templeton2A_SD_practice,2020.2.10,Win32,60,,,,,,,,,,,,,,,,,,,,,,5.5944,5.525613983,,,,,,,,,,,,,,,,,,,,,,,,,,,,,,,,,,,,,,,,,,,,,,,,,,,,,,,,,,,,,,,,,,,,,,,,,,,,,,,,,
,,,,,,,5f6318fbbfaddb3c293e6236,23,2023-07-20_20h40.20.805,templeton2A_SD_practice,2020.2.10,Win32,60,,,,,,,,,,,,,,,,,,,,,,5.611,5.525613983,,,,,,,,,,,,,,,,,,,,,,,,,,,,,,,,,,,,,,,,,,,,,,,,,,,,,,,,,,,,,,,,,,,,,,,,,,,,,,,,,
,,,,,,,5f6318fbbfaddb3c293e6236,23,2023-07-20_20h40.20.805,templeton2A_SD_practice,2020.2.10,Win32,60,,,,,,,,,,,,,,,,,,,,,,5.6279,5.525613983,,,,,,,,,,,,,,,,,,,,,,,,,,,,,,,,,,,,,,,,,,,,,,,,,,,,,,,,,,,,,,,,,,,,,,,,,,,,,,,,,
,,,,,,,5f6318fbbfaddb3c293e6236,23,2023-07-20_20h40.20.805,templeton2A_SD_practice,2020.2.10,Win32,60,,,,,,,,,,,,,,,,,,,,,,5.6446,5.525613983,,,,,,,,,,,,,,,,,,,,,,,,,,,,,,,,,,,,,,,,,,,,,,,,,,,,,,,,,,,,,,,,,,,,,,,,,,,,,,,,,
,,,,,,,5f6318fbbfaddb3c293e6236,23,2023-07-20_20h40.20.805,templeton2A_SD_practice,2020.2.10,Win32,60,,,,,,,,,,,,,,,,,,,,,,5.6612,5.525613983,,,,,,,,,,,,,,,,,,,,,,,,,,,,,,,,,,,,,,,,,,,,,,,,,,,,,,,,,,,,,,,,,,,,,,,,,,,,,,,,,
,,,,,,,5f6318fbbfaddb3c293e6236,23,2023-07-20_20h40.20.805,templeton2A_SD_practice,2020.2.10,Win32,60,,,,,,,,,,,,,,,,,,,,,,5.678,5.525613983,,,,,,,,,,,,,,,,,,,,,,,,,,,,,,,,,,,,,,,,,,,,,,,,,,,,,,,,,,,,,,,,,,,,,,,,,,,,,,,,,
,,,,,,,5f6318fbbfaddb3c293e6236,23,2023-07-20_20h40.20.805,templeton2A_SD_practice,2020.2.10,Win32,60,,,,,,,,,,,,,,,,,,,,,,5.6945,5.525613983,,,,,,,,,,,,,,,,,,,,,,,,,,,,,,,,,,,,,,,,,,,,,,,,,,,,,,,,,,,,,,,,,,,,,,,,,,,,,,,,,
,,,,,,,5f6318fbbfaddb3c293e6236,23,2023-07-20_20h40.20.805,templeton2A_SD_practice,2020.2.10,Win32,60,,,,,,,,,,,,,,,,,,,,,,5.711,5.525613983,,,,,,,,,,,,,,,,,,,,,,,,,,,,,,,,,,,,,,,,,,,,,,,,,,,,,,,,,,,,,,,,,,,,,,,,,,,,,,,,,
,,,,,,,5f6318fbbfaddb3c293e6236,23,2023-07-20_20h40.20.805,templeton2A_SD_practice,2020.2.10,Win32,60,,,,,,,,,,,,,,,,,,,,,,5.7278,5.525613983,,,,,,,,,,,,,,,,,,,,,,,,,,,,,,,,,,,,,,,,,,,,,,,,,,,,,,,,,,,,,,,,,,,,,,,,,,,,,,,,,
,,,,,,,5f6318fbbfaddb3c293e6236,23,2023-07-20_20h40.20.805,templeton2A_SD_practice,2020.2.10,Win32,60,,,,,,,,,,,,,,,,,,,,,,5.7444,5.525613983,,,,,,,,,,,,,,,,,,,,,,,,,,,,,,,,,,,,,,,,,,,,,,,,,,,,,,,,,,,,,,,,,,,,,,,,,,,,,,,,,
,,,,,,,5f6318fbbfaddb3c293e6236,23,2023-07-20_20h40.20.805,templeton2A_SD_practice,2020.2.10,Win32,60,,,,,,,,,,,,,,,,,,,,,,5.761,5.525613983,,,,,,,,,,,,,,,,,,,,,,,,,,,,,,,,,,,,,,,,,,,,,,,,,,,,,,,,,,,,,,,,,,,,,,,,,,,,,,,,,
,,,,,,,5f6318fbbfaddb3c293e6236,23,2023-07-20_20h40.20.805,templeton2A_SD_practice,2020.2.10,Win32,60,,,,,,,,,,,,,,,,,,,,,,5.7779,5.525613983,,,,,,,,,,,,,,,,,,,,,,,,,,,,,,,,,,,,,,,,,,,,,,,,,,,,,,,,,,,,,,,,,,,,,,,,,,,,,,,,,
,,,,,,,5f6318fbbfaddb3c293e6236,23,2023-07-20_20h40.20.805,templeton2A_SD_practice,2020.2.10,Win32,60,,,,,,,,,,,,,,,,,,,,,,5.7944,5.525613983,,,,,,,,,,,,,,,,,,,,,,,,,,,,,,,,,,,,,,,,,,,,,,,,,,,,,,,,,,,,,,,,,,,,,,,,,,,,,,,,,
,,,,,,,5f6318fbbfaddb3c293e6236,23,2023-07-20_20h40.20.805,templeton2A_SD_practice,2020.2.10,Win32,60,,,,,,,,,,,,,,,,,,,,,,5.8113,5.525613983,,,,,,,,,,,,,,,,,,,,,,,,,,,,,,,,,,,,,,,,,,,,,,,,,,,,,,,,,,,,,,,,,,,,,,,,,,,,,,,,,
,,,,,,,5f6318fbbfaddb3c293e6236,23,2023-07-20_20h40.20.805,templeton2A_SD_practice,2020.2.10,Win32,60,,,,,,,,,,,,,,,,,,,,,,5.8279,5.525613983,,,,,,,,,,,,,,,,,,,,,,,,,,,,,,,,,,,,,,,,,,,,,,,,,,,,,,,,,,,,,,,,,,,,,,,,,,,,,,,,,
,,,,,,,5f6318fbbfaddb3c293e6236,23,2023-07-20_20h40.20.805,templeton2A_SD_practice,2020.2.10,Win32,60,,,,,,,,,,,,,,,,,,,,,,5.8444,5.525613983,,,,,,,,,,,,,,,,,,,,,,,,,,,,,,,,,,,,,,,,,,,,,,,,,,,,,,,,,,,,,,,,,,,,,,,,,,,,,,,,,
,,,,,,,5f6318fbbfaddb3c293e6236,23,2023-07-20_20h40.20.805,templeton2A_SD_practice,2020.2.10,Win32,60,,,,,,,,,,,,,,,,,,,,,,5.8611,5.525613983,,,,,,,,,,,,,,,,,,,,,,,,,,,,,,,,,,,,,,,,,,,,,,,,,,,,,,,,,,,,,,,,,,,,,,,,,,,,,,,,,
,,,,,,,5f6318fbbfaddb3c293e6236,23,2023-07-20_20h40.20.805,templeton2A_SD_practice,2020.2.10,Win32,60,,,,,,,,,,,,,,,,,,,,,,5.8779,5.525613983,,,,,,,,,,,,,,,,,,,,,,,,,,,,,,,,,,,,,,,,,,,,,,,,,,,,,,,,,,,,,,,,,,,,,,,,,,,,,,,,,
,,,,,,,5f6318fbbfaddb3c293e6236,23,2023-07-20_20h40.20.805,templeton2A_SD_practice,2020.2.10,Win32,60,,,,,,,,,,,,,,,,,,,,,,5.8946,5.525613983,,,,,,,,,,,,,,,,,,,,,,,,,,,,,,,,,,,,,,,,,,,,,,,,,,,,,,,,,,,,,,,,,,,,,,,,,,,,,,,,,
,,,,,,,5f6318fbbfaddb3c293e6236,23,2023-07-20_20h40.20.805,templeton2A_SD_practice,2020.2.10,Win32,60,,,,,,,,,,,,,,,,,,,,,,5.9112,5.525613983,,,,,,,,,,,,,,,,,,,,,,,,,,,,,,,,,,,,,,,,,,,,,,,,,,,,,,,,,,,,,,,,,,,,,,,,,,,,,,,,,
,,,,,,,5f6318fbbfaddb3c293e6236,23,2023-07-20_20h40.20.805,templeton2A_SD_practice,2020.2.10,Win32,60,,,,,,,,,,,,,,,,,,,,,,5.9278,5.525613983,,,,,,,,,,,,,,,,,,,,,,,,,,,,,,,,,,,,,,,,,,,,,,,,,,,,,,,,,,,,,,,,,,,,,,,,,,,,,,,,,
,,,,,,,5f6318fbbfaddb3c293e6236,23,2023-07-20_20h40.20.805,templeton2A_SD_practice,2020.2.10,Win32,60,,,,,,,,,,,,,,,,,,,,,,5.9444,5.525613983,,,,,,,,,,,,,,,,,,,,,,,,,,,,,,,,,,,,,,,,,,,,,,,,,,,,,,,,,,,,,,,,,,,,,,,,,,,,,,,,,
,,,,,,,5f6318fbbfaddb3c293e6236,23,2023-07-20_20h40.20.805,templeton2A_SD_practice,2020.2.10,Win32,60,,,,,,,,,,,,,,,,,,,,,,5.9612,5.525613983,,,,,,,,,,,,,,,,,,,,,,,,,,,,,,,,,,,,,,,,,,,,,,,,,,,,,,,,,,,,,,,,,,,,,,,,,,,,,,,,,
,,,,,,,5f6318fbbfaddb3c293e6236,23,2023-07-20_20h40.20.805,templeton2A_SD_practice,2020.2.10,Win32,60,,,,,,,,,,,,,,,,,,,,,,5.9778,5.525613983,,,,,,,,,,,,,,,,,,,,,,,,,,,,,,,,,,,,,,,,,,,,,,,,,,,,,,,,,,,,,,,,,,,,,,,,,,,,,,,,,
,,,,,,,5f6318fbbfaddb3c293e6236,23,2023-07-20_20h40.20.805,templeton2A_SD_practice,2020.2.10,Win32,60,,,,,,,,,,,,,,,,,,,,,,5.9945,5.525613983,,,,,,,,,,,,,,,,,,,,,,,,,,,,,,,,,,,,,,,,,,,,,,,,,,,,,,,,,,,,,,,,,,,,,,,,,,,,,,,,,
,,,,,,,5f6318fbbfaddb3c293e6236,23,2023-07-20_20h40.20.805,templeton2A_SD_practice,2020.2.10,Win32,60,,,,,,,,,,,,,,,,,,,,,,6.011,5.525613983,,,,,,,,,,,,,,,,,,,,,,,,,,,,,,,,,,,,,,,,,,,,,,,,,,,,,,,,,,,,,,,,,,,,,,,,,,,,,,,,,
,,,,,,,5f6318fbbfaddb3c293e6236,23,2023-07-20_20h40.20.805,templeton2A_SD_practice,2020.2.10,Win32,60,,,,,,,,,,,,,,,,,,,,,,6.0279,5.525613983,,,,,,,,,,,,,,,,,,,,,,,,,,,,,,,,,,,,,,,,,,,,,,,,,,,,,,,,,,,,,,,,,,,,,,,,,,,,,,,,,
,,,,,,,5f6318fbbfaddb3c293e6236,23,2023-07-20_20h40.20.805,templeton2A_SD_practice,2020.2.10,Win32,60,,,,,,,,,,,,,,,,,,,,,,6.0443,5.525613983,,,,,,,,,,,,,,,,,,,,,,,,,,,,,,,,,,,,,,,,,,,,,,,,,,,,,,,,,,,,,,,,,,,,,,,,,,,,,,,,,
,,,,,,,5f6318fbbfaddb3c293e6236,23,2023-07-20_20h40.20.805,templeton2A_SD_practice,2020.2.10,Win32,60,,,,,,,,,,,,,,,,,,,,,,6.0612,5.525613983,,,,,,,,,,,,,,,,,,,,,,,,,,,,,,,,,,,,,,,,,,,,,,,,,,,,,,,,,,,,,,,,,,,,,,,,,,,,,,,,,
,,,,,,,5f6318fbbfaddb3c293e6236,23,2023-07-20_20h40.20.805,templeton2A_SD_practice,2020.2.10,Win32,60,,,,,,,,,,,,,,,,,,,,,,6.0777,5.525613983,,,,,,,,,,,,,,,,,,,,,,,,,,,,,,,,,,,,,,,,,,,,,,,,,,,,,,,,,,,,,,,,,,,,,,,,,,,,,,,,,
,,,,,,,5f6318fbbfaddb3c293e6236,23,2023-07-20_20h40.20.805,templeton2A_SD_practice,2020.2.10,Win32,60,,,,,,,,,,,,,,,,,,,,,,6.0943,5.525613983,,,,,,,,,,,,,,,,,,,,,,,,,,,,,,,,,,,,,,,,,,,,,,,,,,,,,,,,,,,,,,,,,,,,,,,,,,,,,,,,,
,,,,,,,5f6318fbbfaddb3c293e6236,23,2023-07-20_20h40.20.805,templeton2A_SD_practice,2020.2.10,Win32,60,,,,,,,,,,,,,,,,,,,,,,6.111,5.525613983,,,,,,,,,,,,,,,,,,,,,,,,,,,,,,,,,,,,,,,,,,,,,,,,,,,,,,,,,,,,,,,,,,,,,,,,,,,,,,,,,
,,,,,,,5f6318fbbfaddb3c293e6236,23,2023-07-20_20h40.20.805,templeton2A_SD_practice,2020.2.10,Win32,60,,,,,,,,,,,,,,,,,,,,,,6.1277,5.525613983,,,,,,,,,,,,,,,,,,,,,,,,,,,,,,,,,,,,,,,,,,,,,,,,,,,,,,,,,,,,,,,,,,,,,,,,,,,,,,,,,
,,,,,,,5f6318fbbfaddb3c293e6236,23,2023-07-20_20h40.20.805,templeton2A_SD_practice,2020.2.10,Win32,60,,,,,,,,,,,,,,,,,,,,,,6.1443,5.525613983,,,,,,,,,,,,,,,,,,,,,,,,,,,,,,,,,,,,,,,,,,,,,,,,,,,,,,,,,,,,,,,,,,,,,,,,,,,,,,,,,
,,,,,,,5f6318fbbfaddb3c293e6236,23,2023-07-20_20h40.20.805,templeton2A_SD_practice,2020.2.10,Win32,60,,,,,,,,,,,,,,,,,,,,,,6.1609,5.525613983,,,,,,,,,,,,,,,,,,,,,,,,,,,,,,,,,,,,,,,,,,,,,,,,,,,,,,,,,,,,,,,,,,,,,,,,,,,,,,,,,
,,,,,,,5f6318fbbfaddb3c293e6236,23,2023-07-20_20h40.20.805,templeton2A_SD_practice,2020.2.10,Win32,60,,,,,,,,,,,,,,,,,,,,,,6.1775,5.525613983,,,,,,,,,,,,,,,,,,,,,,,,,,,,,,,,,,,,,,,,,,,,,,,,,,,,,,,,,,,,,,,,,,,,,,,,,,,,,,,,,
,,,,,,,5f6318fbbfaddb3c293e6236,23,2023-07-20_20h40.20.805,templeton2A_SD_practice,2020.2.10,Win32,60,,,,,,,,,,,,,,,,,,,,,,6.1942,5.525613983,,,,,,,,,,,,,,,,,,,,,,,,,,,,,,,,,,,,,,,,,,,,,,,,,,,,,,,,,,,,,,,,,,,,,,,,,,,,,,,,,
,,,,,,,5f6318fbbfaddb3c293e6236,23,2023-07-20_20h40.20.805,templeton2A_SD_practice,2020.2.10,Win32,60,,,,,,,,,,,,,,,,,,,,,,6.2109,5.525613983,,,,,,,,,,,,,,,,,,,,,,,,,,,,,,,,,,,,,,,,,,,,,,,,,,,,,,,,,,,,,,,,,,,,,,,,,,,,,,,,,
,,,,,,,5f6318fbbfaddb3c293e6236,23,2023-07-20_20h40.20.805,templeton2A_SD_practice,2020.2.10,Win32,60,,,,,,,,,,,,,,,,,,,,,,6.2276,5.525613983,,,,,,,,,,,,,,,,,,,,,,,,,,,,,,,,,,,,,,,,,,,,,,,,,,,,,,,,,,,,,,,,,,,,,,,,,,,,,,,,,
,,,,,,,5f6318fbbfaddb3c293e6236,23,2023-07-20_20h40.20.805,templeton2A_SD_practice,2020.2.10,Win32,60,,,,,,,,,,,,,,,,,,,,,,6.2441,5.525613983,,,,,,,,,,,,,,,,,,,,,,,,,,,,,,,,,,,,,,,,,,,,,,,,,,,,,,,,,,,,,,,,,,,,,,,,,,,,,,,,,
,,,,,,,5f6318fbbfaddb3c293e6236,23,2023-07-20_20h40.20.805,templeton2A_SD_practice,2020.2.10,Win32,60,,,,,,,,,,,,,,,,,,,,,,6.261,5.525613983,,,,,,,,,,,,,,,,,,,,,,,,,,,,,,,,,,,,,,,,,,,,,,,,,,,,,,,,,,,,,,,,,,,,,,,,,,,,,,,,,
,,,,,,,5f6318fbbfaddb3c293e6236,23,2023-07-20_20h40.20.805,templeton2A_SD_practice,2020.2.10,Win32,60,,,,,,,,,,,,,,,,,,,,,,6.2775,5.525613983,,,,,,,,,,,,,,,,,,,,,,,,,,,,,,,,,,,,,,,,,,,,,,,,,,,,,,,,,,,,,,,,,,,,,,,,,,,,,,,,,
,,,,,,,5f6318fbbfaddb3c293e6236,23,2023-07-20_20h40.20.805,templeton2A_SD_practice,2020.2.10,Win32,60,,,,,,,,,,,,,,,,,,,,,,6.2943,5.525613983,,,,,,,,,,,,,,,,,,,,,,,,,,,,,,,,,,,,,,,,,,,,,,,,,,,,,,,,,,,,,,,,,,,,,,,,,,,,,,,,,
,,,,,,,5f6318fbbfaddb3c293e6236,23,2023-07-20_20h40.20.805,templeton2A_SD_practice,2020.2.10,Win32,60,,,,,,,,,,,,,,,,,,,,,,6.3109,5.525613983,,,,,,,,,,,,,,,,,,,,,,,,,,,,,,,,,,,,,,,,,,,,,,,,,,,,,,,,,,,,,,,,,,,,,,,,,,,,,,,,,
,,,,,,,5f6318fbbfaddb3c293e6236,23,2023-07-20_20h40.20.805,templeton2A_SD_practice,2020.2.10,Win32,60,,,,,,,,,,,,,,,,,,,,,,6.3276,5.525613983,,,,,,,,,,,,,,,,,,,,,,,,,,,,,,,,,,,,,,,,,,,,,,,,,,,,,,,,,,,,,,,,,,,,,,,,,,,,,,,,,
,,,,,,,5f6318fbbfaddb3c293e6236,23,2023-07-20_20h40.20.805,templeton2A_SD_practice,2020.2.10,Win32,60,,,,,,,,,,,,,,,,,,,,,,6.3441,5.525613983,,,,,,,,,,,,,,,,,,,,,,,,,,,,,,,,,,,,,,,,,,,,,,,,,,,,,,,,,,,,,,,,,,,,,,,,,,,,,,,,,
,,,,,,,5f6318fbbfaddb3c293e6236,23,2023-07-20_20h40.20.805,templeton2A_SD_practice,2020.2.10,Win32,60,,,,,,,,,,,,,,,,,,,,,,6.3608,5.525613983,,,,,,,,,,,,,,,,,,,,,,,,,,,,,,,,,,,,,,,,,,,,,,,,,,,,,,,,,,,,,,,,,,,,,,,,,,,,,,,,,
,,,,,,,5f6318fbbfaddb3c293e6236,23,2023-07-20_20h40.20.805,templeton2A_SD_practice,2020.2.10,Win32,60,,,,,,,,,,,,,,,,,,,,,,6.3775,5.525613983,,,,,,,,,,,,,,,,,,,,,,,,,,,,,,,,,,,,,,,,,,,,,,,,,,,,,,,,,,,,,,,,,,,,,,,,,,,,,,,,,
,,,,,,,5f6318fbbfaddb3c293e6236,23,2023-07-20_20h40.20.805,templeton2A_SD_practice,2020.2.10,Win32,60,,,,,,,,,,,,,,,,,,,,,,6.3941,5.525613983,,,,,,,,,,,,,,,,,,,,,,,,,,,,,,,,,,,,,,,,,,,,,,,,,,,,,,,,,,,,,,,,,,,,,,,,,,,,,,,,,
,,,,,,,5f6318fbbfaddb3c293e6236,23,2023-07-20_20h40.20.805,templeton2A_SD_practice,2020.2.10,Win32,60,,,,,,,,,,,,,,,,,,,,,,6.4109,5.525613983,,,,,,,,,,,,,,,,,,,,,,,,,,,,,,,,,,,,,,,,,,,,,,,,,,,,,,,,,,,,,,,,,,,,,,,,,,,,,,,,,
,,,,,,,5f6318fbbfaddb3c293e6236,23,2023-07-20_20h40.20.805,templeton2A_SD_practice,2020.2.10,Win32,60,,,,,,,,,,,,,,,,,,,,,,6.4273,5.525613983,,,,,,,,,,,,,,,,,,,,,,,,,,,,,,,,,,,,,,,,,,,,,,,,,,,,,,,,,,,,,,,,,,,,,,,,,,,,,,,,,
,,,,,,,5f6318fbbfaddb3c293e6236,23,2023-07-20_20h40.20.805,templeton2A_SD_practice,2020.2.10,Win32,60,,,,,,,,,,,,,,,,,,,,,,6.4441,5.525613983,,,,,,,,,,,,,,,,,,,,,,,,,,,,,,,,,,,,,,,,,,,,,,,,,,,,,,,,,,,,,,,,,,,,,,,,,,,,,,,,,
,,,,,,,5f6318fbbfaddb3c293e6236,23,2023-07-20_20h40.20.805,templeton2A_SD_practice,2020.2.10,Win32,60,,,,,,,,,,,,,,,,,,,,,,6.4607,5.525613983,,,,,,,,,,,,,,,,,,,,,,,,,,,,,,,,,,,,,,,,,,,,,,,,,,,,,,,,,,,,,,,,,,,,,,,,,,,,,,,,,
,,,,,,,5f6318fbbfaddb3c293e6236,23,2023-07-20_20h40.20.805,templeton2A_SD_practice,2020.2.10,Win32,60,,,,,,,,,,,,,,,,,,,,,,6.4774,5.525613983,,,,,,,,,,,,,,,,,,,,,,,,,,,,,,,,,,,,,,,,,,,,,,,,,,,,,,,,,,,,,,,,,,,,,,,,,,,,,,,,,
,,,,,,,5f6318fbbfaddb3c293e6236,23,2023-07-20_20h40.20.805,templeton2A_SD_practice,2020.2.10,Win32,60,,,,,,,,,,,,,,,,,,,,,,6.4939,5.525613983,,,,,,,,,,,,,,,,,,,,,,,,,,,,,,,,,,,,,,,,,,,,,,,,,,,,,,,,,,,,,,,,,,,,,,,,,,,,,,,,,
,,,,,,,5f6318fbbfaddb3c293e6236,23,2023-07-20_20h40.20.805,templeton2A_SD_practice,2020.2.10,Win32,60,,,,,,,,,,,,,,,,,,,,,,6.5105,5.525613983,,,,,,,,,,,,,,,,,,,,,,,,,,,,,,,,,,,,,,,,,,,,,,,,,,,,,,,,,,,,,,,,,,,,,,,,,,,,,,,,,
,,,,,,,5f6318fbbfaddb3c293e6236,23,2023-07-20_20h40.20.805,templeton2A_SD_practice,2020.2.10,Win32,60,,,,,,,,,,,,,,,,,,,,,,6.5273,5.525613983,,,,,,,,,,,,,,,,,,,,,,,,,,,,,,,,,,,,,,,,,,,,,,,,,,,,,,,,,,,,,,,,,,,,,,,,,,,,,,,,,
,,,,,,,5f6318fbbfaddb3c293e6236,23,2023-07-20_20h40.20.805,templeton2A_SD_practice,2020.2.10,Win32,60,,,,,,,,,,,,,,,,,,,,,,6.5441,5.525613983,,,,,,,,,,,,,,,,,,,,,,,,,,,,,,,,,,,,,,,,,,,,,,,,,,,,,,,,,,,,,,,,,,,,,,,,,,,,,,,,,
,,,,,,,5f6318fbbfaddb3c293e6236,23,2023-07-20_20h40.20.805,templeton2A_SD_practice,2020.2.10,Win32,60,,,,,,,,,,,,,,,,,,,,,,6.5605,5.525613983,,,,,,,,,,,,,,,,,,,,,,,,,,,,,,,,,,,,,,,,,,,,,,,,,,,,,,,,,,,,,,,,,,,,,,,,,,,,,,,,,
,,,,,,,5f6318fbbfaddb3c293e6236,23,2023-07-20_20h40.20.805,templeton2A_SD_practice,2020.2.10,Win32,60,,,,,,,,,,,,,,,,,,,,,,6.5775,5.525613983,,,,,,,,,,,,,,,,,,,,,,,,,,,,,,,,,,,,,,,,,,,,,,,,,,,,,,,,,,,,,,,,,,,,,,,,,,,,,,,,,
,,,,,,,5f6318fbbfaddb3c293e6236,23,2023-07-20_20h40.20.805,templeton2A_SD_practice,2020.2.10,Win32,60,,,,,,,,,,,,,,,,,,,,,,6.5939,5.525613983,,,,,,,,,,,,,,,,,,,,,,,,,,,,,,,,,,,,,,,,,,,,,,,,,,,,,,,,,,,,,,,,,,,,,,,,,,,,,,,,,
,,,,,,,5f6318fbbfaddb3c293e6236,23,2023-07-20_20h40.20.805,templeton2A_SD_practice,2020.2.10,Win32,60,,,,,,,,,,,,,,,,,,,,,,6.6107,5.525613983,,,,,,,,,,,,,,,,,,,,,,,,,,,,,,,,,,,,,,,,,,,,,,,,,,,,,,,,,,,,,,,,,,,,,,,,,,,,,,,,,
,,,,,,,5f6318fbbfaddb3c293e6236,23,2023-07-20_20h40.20.805,templeton2A_SD_practice,2020.2.10,Win32,60,,,,,,,,,,,,,,,,,,,,,,6.6275,5.525613983,,,,,,,,,,,,,,,,,,,,,,,,,,,,,,,,,,,,,,,,,,,,,,,,,,,,,,,,,,,,,,,,,,,,,,,,,,,,,,,,,
,,,,,,,5f6318fbbfaddb3c293e6236,23,2023-07-20_20h40.20.805,templeton2A_SD_practice,2020.2.10,Win32,60,,,,,,,,,,,,,,,,,,,,,,6.6437,5.525613983,,,,,,,,,,,,,,,,,,,,,,,,,,,,,,,,,,,,,,,,,,,,,,,,,,,,,,,,,,,,,,,,,,,,,,,,,,,,,,,,,
,,,,,,,5f6318fbbfaddb3c293e6236,23,2023-07-20_20h40.20.805,templeton2A_SD_practice,2020.2.10,Win32,60,,,,,,,,,,,,,,,,,,,,,,6.6606,5.525613983,,,,,,,,,,,,,,,,,,,,,,,,,,,,,,,,,,,,,,,,,,,,,,,,,,,,,,,,,,,,,,,,,,,,,,,,,,,,,,,,,
,,,,,,,5f6318fbbfaddb3c293e6236,23,2023-07-20_20h40.20.805,templeton2A_SD_practice,2020.2.10,Win32,60,,,,,,,,,,,,,,,,,,,,,,6.6771,5.525613983,,,,,,,,,,,,,,,,,,,,,,,,,,,,,,,,,,,,,,,,,,,,,,,,,,,,,,,,,,,,,,,,,,,,,,,,,,,,,,,,,
,,,,,,,5f6318fbbfaddb3c293e6236,23,2023-07-20_20h40.20.805,templeton2A_SD_practice,2020.2.10,Win32,60,,,,,,,,,,,,,,,,,,,,,,6.6939,5.525613983,,,,,,,,,,,,,,,,,,,,,,,,,,,,,,,,,,,,,,,,,,,,,,,,,,,,,,,,,,,,,,,,,,,,,,,,,,,,,,,,,
,,,,,,,5f6318fbbfaddb3c293e6236,23,2023-07-20_20h40.20.805,templeton2A_SD_practice,2020.2.10,Win32,60,,,,,,,,,,,,,,,,,,,,,,6.7105,5.525613983,,,,,,,,,,,,,,,,,,,,,,,,,,,,,,,,,,,,,,,,,,,,,,,,,,,,,,,,,,,,,,,,,,,,,,,,,,,,,,,,,
,,,,,,,5f6318fbbfaddb3c293e6236,23,2023-07-20_20h40.20.805,templeton2A_SD_practice,2020.2.10,Win32,60,,,,,,,,,,,,,,,,,,,,,,6.7271,5.525613983,,,,,,,,,,,,,,,,,,,,,,,,,,,,,,,,,,,,,,,,,,,,,,,,,,,,,,,,,,,,,,,,,,,,,,,,,,,,,,,,,
,,,,,,,5f6318fbbfaddb3c293e6236,23,2023-07-20_20h40.20.805,templeton2A_SD_practice,2020.2.10,Win32,60,,,,,,,,,,,,,,,,,,,,,,6.7438,5.525613983,,,,,,,,,,,,,,,,,,,,,,,,,,,,,,,,,,,,,,,,,,,,,,,,,,,,,,,,,,,,,,,,,,,,,,,,,,,,,,,,,
,,,,,,,5f6318fbbfaddb3c293e6236,23,2023-07-20_20h40.20.805,templeton2A_SD_practice,2020.2.10,Win32,60,,,,,,,,,,,,,,,,,,,,,,6.7606,5.525613983,,,,,,,,,,,,,,,,,,,,,,,,,,,,,,,,,,,,,,,,,,,,,,,,,,,,,,,,,,,,,,,,,,,,,,,,,,,,,,,,,
,,,,,,,5f6318fbbfaddb3c293e6236,23,2023-07-20_20h40.20.805,templeton2A_SD_practice,2020.2.10,Win32,60,,,,,,,,,,,,,,,,,,,,,,6.7772,5.525613983,,,,,,,,,,,,,,,,,,,,,,,,,,,,,,,,,,,,,,,,,,,,,,,,,,,,,,,,,,,,,,,,,,,,,,,,,,,,,,,,,
,,,,,,,5f6318fbbfaddb3c293e6236,23,2023-07-20_20h40.20.805,templeton2A_SD_practice,2020.2.10,Win32,60,,,,,,,,,,,,,,,,,,,,,,6.794,5.525613983,,,,,,,,,,,,,,,,,,,,,,,,,,,,,,,,,,,,,,,,,,,,,,,,,,,,,,,,,,,,,,,,,,,,,,,,,,,,,,,,,
,,,,,,,5f6318fbbfaddb3c293e6236,23,2023-07-20_20h40.20.805,templeton2A_SD_practice,2020.2.10,Win32,60,,,,,,,,,,,,,,,,,,,,,,6.8108,5.525613983,,,,,,,,,,,,,,,,,,,,,,,,,,,,,,,,,,,,,,,,,,,,,,,,,,,,,,,,,,,,,,,,,,,,,,,,,,,,,,,,,
,,,,,,,5f6318fbbfaddb3c293e6236,23,2023-07-20_20h40.20.805,templeton2A_SD_practice,2020.2.10,Win32,60,,,,,,,,,,,,,,,,,,,,,,6.8273,5.525613983,,,,,,,,,,,,,,,,,,,,,,,,,,,,,,,,,,,,,,,,,,,,,,,,,,,,,,,,,,,,,,,,,,,,,,,,,,,,,,,,,
,,,,,,,5f6318fbbfaddb3c293e6236,23,2023-07-20_20h40.20.805,templeton2A_SD_practice,2020.2.10,Win32,60,,,,,,,,,,,,,,,,,,,,,,6.8441,5.525613983,,,,,,,,,,,,,,,,,,,,,,,,,,,,,,,,,,,,,,,,,,,,,,,,,,,,,,,,,,,,,,,,,,,,,,,,,,,,,,,,,
,,,,,,,5f6318fbbfaddb3c293e6236,23,2023-07-20_20h40.20.805,templeton2A_SD_practice,2020.2.10,Win32,60,,,,,,,,,,,,,,,,,,,,,,6.8607,5.525613983,,,,,,,,,,,,,,,,,,,,,,,,,,,,,,,,,,,,,,,,,,,,,,,,,,,,,,,,,,,,,,,,,,,,,,,,,,,,,,,,,
,,,,,,,5f6318fbbfaddb3c293e6236,23,2023-07-20_20h40.20.805,templeton2A_SD_practice,2020.2.10,Win32,60,,,,,,,,,,,,,,,,,,,,,,6.8774,5.525613983,,,,,,,,,,,,,,,,,,,,,,,,,,,,,,,,,,,,,,,,,,,,,,,,,,,,,,,,,,,,,,,,,,,,,,,,,,,,,,,,,
,,,,,,,5f6318fbbfaddb3c293e6236,23,2023-07-20_20h40.20.805,templeton2A_SD_practice,2020.2.10,Win32,60,,,,,,,,,,,,,,,,,,,,,,6.894,5.525613983,,,,,,,,,,,,,,,,,,,,,,,,,,,,,,,,,,,,,,,,,,,,,,,,,,,,,,,,,,,,,,,,,,,,,,,,,,,,,,,,,
,,,,,,,5f6318fbbfaddb3c293e6236,23,2023-07-20_20h40.20.805,templeton2A_SD_practice,2020.2.10,Win32,60,,,,,,,,,,,,,,,,,,,,,,6.9108,5.525613983,,,,,,,,,,,,,,,,,,,,,,,,,,,,,,,,,,,,,,,,,,,,,,,,,,,,,,,,,,,,,,,,,,,,,,,,,,,,,,,,,
,,,,,,,5f6318fbbfaddb3c293e6236,23,2023-07-20_20h40.20.805,templeton2A_SD_practice,2020.2.10,Win32,60,,,,,,,,,,,,,,,,,,,,,,6.9273,5.525613983,,,,,,,,,,,,,,,,,,,,,,,,,,,,,,,,,,,,,,,,,,,,,,,,,,,,,,,,,,,,,,,,,,,,,,,,,,,,,,,,,
,,,,,,,5f6318fbbfaddb3c293e6236,23,2023-07-20_20h40.20.805,templeton2A_SD_practice,2020.2.10,Win32,60,,,,,,,,,,,,,,,,,,,,,,6.9441,5.525613983,,,,,,,,,,,,,,,,,,,,,,,,,,,,,,,,,,,,,,,,,,,,,,,,,,,,,,,,,,,,,,,,,,,,,,,,,,,,,,,,,
,,,,,,,5f6318fbbfaddb3c293e6236,23,2023-07-20_20h40.20.805,templeton2A_SD_practice,2020.2.10,Win32,60,,,,,,,,,,,,,,,,,,,,,,6.9607,5.525613983,,,,,,,,,,,,,,,,,,,,,,,,,,,,,,,,,,,,,,,,,,,,,,,,,,,,,,,,,,,,,,,,,,,,,,,,,,,,,,,,,
,,,,,,,5f6318fbbfaddb3c293e6236,23,2023-07-20_20h40.20.805,templeton2A_SD_practice,2020.2.10,Win32,60,,,,,,,,,,,,,,,,,,,,,,6.9773,5.525613983,,,,,,,,,,,,,,,,,,,,,,,,,,,,,,,,,,,,,,,,,,,,,,,,,,,,,,,,,,,,,,,,,,,,,,,,,,,,,,,,,
,,,,,,,5f6318fbbfaddb3c293e6236,23,2023-07-20_20h40.20.805,templeton2A_SD_practice,2020.2.10,Win32,60,,,,,,,,,,,,,,,,,,,,,,6.9941,5.525613983,,,,,,,,,,,,,,,,,,,,,,,,,,,,,,,,,,,,,,,,,,,,,,,,,,,,,,,,,,,,,,,,,,,,,,,,,,,,,,,,,
,,,,,,,5f6318fbbfaddb3c293e6236,23,2023-07-20_20h40.20.805,templeton2A_SD_practice,2020.2.10,Win32,60,,,,,,,,,,,,,,,,,,,,,,7.0105,5.525613983,,,,,,,,,,,,,,,,,,,,,,,,,,,,,,,,,,,,,,,,,,,,,,,,,,,,,,,,,,,,,,,,,,,,,,,,,,,,,,,,,
,,,,,,,5f6318fbbfaddb3c293e6236,23,2023-07-20_20h40.20.805,templeton2A_SD_practice,2020.2.10,Win32,60,,,,,,,,,,,,,,,,,,,,,,7.0272,5.525613983,,,,,,,,,,,,,,,,,,,,,,,,,,,,,,,,,,,,,,,,,,,,,,,,,,,,,,,,,,,,,,,,,,,,,,,,,,,,,,,,,
