Laptop,trials_7.thisRepN,trials_7.thisTrialN,trials_7.thisN,trials_7.thisIndex,trials_7.ran,trials_7.order,participant,mapping,date,expName,psychopyVersion,OS,frameRate,CmUnit,trials_8.thisRepN,trials_8.thisTrialN,trials_8.thisN,trials_8.thisIndex,trials_8.ran,Cm,HeightCmAsEntered,HeightCmUsed,DistCmBasedOnHeight,trials_9.thisRepN,trials_9.thisTrialN,trials_9.thisN,trials_9.thisIndex,trials_9.ran,trials_9.order,screen_scale_start_time,scale_key_pressed,X Scale,Y Scale,screen_scale_end_time,timeInTrial,eccentricity,spacePressed,BlindSpotCm,BlindSpotBasedDistCm,DistUsedCm,begin_expt_instr_resp.keys,begin_expt_instr_resp.rt,trials_2.thisRepN,trials_2.thisTrialN,trials_2.thisN,trials_2.thisIndex,trials_2.ran,Used_image_1,Used_image_2,Used_image_3,Used_image_4,Used_image_5,Used_image_6,Used_image_7,Used_image_8,Unused_image_1,Unused_image_2,memDisplayOnTimePractice,mem_image_0_practice,mem_image_1_practice,mem_image_2_practice,mem_image_3_practice,mem_image_4_practice,mem_image_5_practice,mem_image_6_practice,mem_image_7_practice,retention_interval_practice,retro_0_post_1_practice,change_or_no_practice,cue_location_practice,mem_display_to_test_array_duration_s,mem_display_to_cue_duration_s,routine_duration_s,sd_practice_resp.keys,sd_practice_resp.rt,conf_practice_resp.keys,conf_practice_resp.rt,trials.thisRepN,trials.thisTrialN,trials.thisN,trials.thisIndex,trials.ran,trials_4.thisRepN,trials_4.thisTrialN,trials_4.thisN,trials_4.thisIndex,trials_4.ran,training_trial_index,memDisplayOnTimeTraining,mem_image_0_training,mem_image_1_training,mem_image_2_training,mem_image_3_training,mem_image_4_training,mem_image_5_training,mem_image_6_training,mem_image_7_training,retro_0_post_1_training,change_or_no_training,cue_location_training,test_image_0_training,test_image_1_training,test_image_2_training,test_image_3_training,test_image_4_training,test_image_5_training,test_image_6_training,test_image_7_training,consecutive_correct_retro_short,sd_training_resp.keys,sd_training_resp.rt,conf_training_resp.keys,conf_training_resp.rt,trials_10.thisRepN,trials_10.thisTrialN,trials_10.thisN,trials_10.thisIndex,trials_10.ran,short_interval_training_finished,training_trial_index_long_this_block,correct_retro_long_this_block,retro_trials_long_this_block,long_interval_block_finished,long_block_retro_acc,reached_criterion,run_out_of_trials,reachedFinish
1,99,0,99,0,1,98,6013013f04461412e683baef,23,2023-07-20_11h43.24.643,templeton2A_SD_practice,2020.2.10,Win32,60,,,,,,,,,,,,,,,,,,,,,,,,,,,,,,,,,,,,,,,,,,,,,,,,,,,,,,,,,,,,,,,,,,,,,,,,,,,,,,,,,,,,,,,,,,,,,,,,,,,,,,,,,,,,,,,,,,
,,,,,,,6013013f04461412e683baef,23,2023-07-20_11h43.24.643,templeton2A_SD_practice,2020.2.10,Win32,60,1,0,0,0,0,1,,,,,,,,,,,,,,,,,,,,,,,,,,,,,,,,,,,,,,,,,,,,,,,,,,,,,,,,,,,,,,,,,,,,,,,,,,,,,,,,,,,,,,,,,,,,,,,,,,,,,,,,,,,,
,,,,,,,6013013f04461412e683baef,23,2023-07-20_11h43.24.643,templeton2A_SD_practice,2020.2.10,Win32,60,,,,,,,183,183,183,56.8977,99,0,99,0,1,98,,,,,,,,,,,,,,,,,,,,,,,,,,,,,,,,,,,,,,,,,,,,,,,,,,,,,,,,,,,,,,,,,,,,,,,,,,,,,,,,,,,,,,,,,,,,,,,,,,
,,,,,,,6013013f04461412e683baef,23,2023-07-20_11h43.24.643,templeton2A_SD_practice,2020.2.10,Win32,60,,,,,,,,,,,,,,,,,106.0452,,,,,,,,,,,,,,,,,,,,,,,,,,,,,,,,,,,,,,,,,,,,,,,,,,,,,,,,,,,,,,,,,,,,,,,,,,,,,,,,,,,,,,,,,,,,,,,,,
,,,,,,,6013013f04461412e683baef,23,2023-07-20_11h43.24.643,templeton2A_SD_practice,2020.2.10,Win32,60,,,,,,,,,,,,,,,,,,2,,,,,,,,,,,,,,,,,,,,,,,,,,,,,,,,,,,,,,,,,,,,,,,,,,,,,,,,,,,,,,,,,,,,,,,,,,,,,,,,,,,,,,,,,,,,,,,,
,,,,,,,6013013f04461412e683baef,23,2023-07-20_11h43.24.643,templeton2A_SD_practice,2020.2.10,Win32,60,,,,,,,,,,,,,,,,,,2,,,,,,,,,,,,,,,,,,,,,,,,,,,,,,,,,,,,,,,,,,,,,,,,,,,,,,,,,,,,,,,,,,,,,,,,,,,,,,,,,,,,,,,,,,,,,,,,
,,,,,,,6013013f04461412e683baef,23,2023-07-20_11h43.24.643,templeton2A_SD_practice,2020.2.10,Win32,60,,,,,,,,,,,,,,,,,,2,,,,,,,,,,,,,,,,,,,,,,,,,,,,,,,,,,,,,,,,,,,,,,,,,,,,,,,,,,,,,,,,,,,,,,,,,,,,,,,,,,,,,,,,,,,,,,,,
,,,,,,,6013013f04461412e683baef,23,2023-07-20_11h43.24.643,templeton2A_SD_practice,2020.2.10,Win32,60,,,,,,,,,,,,,,,,,,4,,,,,,,,,,,,,,,,,,,,,,,,,,,,,,,,,,,,,,,,,,,,,,,,,,,,,,,,,,,,,,,,,,,,,,,,,,,,,,,,,,,,,,,,,,,,,,,,
,,,,,,,6013013f04461412e683baef,23,2023-07-20_11h43.24.643,templeton2A_SD_practice,2020.2.10,Win32,60,,,,,,,,,,,,,,,,,,2,,,,,,,,,,,,,,,,,,,,,,,,,,,,,,,,,,,,,,,,,,,,,,,,,,,,,,,,,,,,,,,,,,,,,,,,,,,,,,,,,,,,,,,,,,,,,,,,
,,,,,,,6013013f04461412e683baef,23,2023-07-20_11h43.24.643,templeton2A_SD_practice,2020.2.10,Win32,60,,,,,,,,,,,,,,,,,,4,,,,,,,,,,,,,,,,,,,,,,,,,,,,,,,,,,,,,,,,,,,,,,,,,,,,,,,,,,,,,,,,,,,,,,,,,,,,,,,,,,,,,,,,,,,,,,,,
,,,,,,,6013013f04461412e683baef,23,2023-07-20_11h43.24.643,templeton2A_SD_practice,2020.2.10,Win32,60,,,,,,,,,,,,,,,,,,4,,,,,,,,,,,,,,,,,,,,,,,,,,,,,,,,,,,,,,,,,,,,,,,,,,,,,,,,,,,,,,,,,,,,,,,,,,,,,,,,,,,,,,,,,,,,,,,,
,,,,,,,6013013f04461412e683baef,23,2023-07-20_11h43.24.643,templeton2A_SD_practice,2020.2.10,Win32,60,,,,,,,,,,,,,,,,,,4,,,,,,,,,,,,,,,,,,,,,,,,,,,,,,,,,,,,,,,,,,,,,,,,,,,,,,,,,,,,,,,,,,,,,,,,,,,,,,,,,,,,,,,,,,,,,,,,
,,,,,,,6013013f04461412e683baef,23,2023-07-20_11h43.24.643,templeton2A_SD_practice,2020.2.10,Win32,60,,,,,,,,,,,,,,,,,,4,,,,,,,,,,,,,,,,,,,,,,,,,,,,,,,,,,,,,,,,,,,,,,,,,,,,,,,,,,,,,,,,,,,,,,,,,,,,,,,,,,,,,,,,,,,,,,,,
,,,,,,,6013013f04461412e683baef,23,2023-07-20_11h43.24.643,templeton2A_SD_practice,2020.2.10,Win32,60,,,,,,,,,,,,,,,,,,4,,,,,,,,,,,,,,,,,,,,,,,,,,,,,,,,,,,,,,,,,,,,,,,,,,,,,,,,,,,,,,,,,,,,,,,,,,,,,,,,,,,,,,,,,,,,,,,,
,,,,,,,6013013f04461412e683baef,23,2023-07-20_11h43.24.643,templeton2A_SD_practice,2020.2.10,Win32,60,,,,,,,,,,,,,,,,,,4,,,,,,,,,,,,,,,,,,,,,,,,,,,,,,,,,,,,,,,,,,,,,,,,,,,,,,,,,,,,,,,,,,,,,,,,,,,,,,,,,,,,,,,,,,,,,,,,
,,,,,,,6013013f04461412e683baef,23,2023-07-20_11h43.24.643,templeton2A_SD_practice,2020.2.10,Win32,60,,,,,,,,,,,,,,,,,,4,,,,,,,,,,,,,,,,,,,,,,,,,,,,,,,,,,,,,,,,,,,,,,,,,,,,,,,,,,,,,,,,,,,,,,,,,,,,,,,,,,,,,,,,,,,,,,,,
,,,,,,,6013013f04461412e683baef,23,2023-07-20_11h43.24.643,templeton2A_SD_practice,2020.2.10,Win32,60,,,,,,,,,,,,,,,,,,4,,,,,,,,,,,,,,,,,,,,,,,,,,,,,,,,,,,,,,,,,,,,,,,,,,,,,,,,,,,,,,,,,,,,,,,,,,,,,,,,,,,,,,,,,,,,,,,,
,,,,,,,6013013f04461412e683baef,23,2023-07-20_11h43.24.643,templeton2A_SD_practice,2020.2.10,Win32,60,,,,,,,,,,,,,,,,,,4,,,,,,,,,,,,,,,,,,,,,,,,,,,,,,,,,,,,,,,,,,,,,,,,,,,,,,,,,,,,,,,,,,,,,,,,,,,,,,,,,,,,,,,,,,,,,,,,
,,,,,,,6013013f04461412e683baef,23,2023-07-20_11h43.24.643,templeton2A_SD_practice,2020.2.10,Win32,60,,,,,,,,,,,,,,,,,,4,,,,,,,,,,,,,,,,,,,,,,,,,,,,,,,,,,,,,,,,,,,,,,,,,,,,,,,,,,,,,,,,,,,,,,,,,,,,,,,,,,,,,,,,,,,,,,,,
,,,,,,,6013013f04461412e683baef,23,2023-07-20_11h43.24.643,templeton2A_SD_practice,2020.2.10,Win32,60,,,,,,,,,,,,,,,,,,4,,,,,,,,,,,,,,,,,,,,,,,,,,,,,,,,,,,,,,,,,,,,,,,,,,,,,,,,,,,,,,,,,,,,,,,,,,,,,,,,,,,,,,,,,,,,,,,,
,,,,,,,6013013f04461412e683baef,23,2023-07-20_11h43.24.643,templeton2A_SD_practice,2020.2.10,Win32,60,,,,,,,,,,,,,,,,,,4,,,,,,,,,,,,,,,,,,,,,,,,,,,,,,,,,,,,,,,,,,,,,,,,,,,,,,,,,,,,,,,,,,,,,,,,,,,,,,,,,,,,,,,,,,,,,,,,
,,,,,,,6013013f04461412e683baef,23,2023-07-20_11h43.24.643,templeton2A_SD_practice,2020.2.10,Win32,60,,,,,,,,,,,,,,,,,,2,,,,,,,,,,,,,,,,,,,,,,,,,,,,,,,,,,,,,,,,,,,,,,,,,,,,,,,,,,,,,,,,,,,,,,,,,,,,,,,,,,,,,,,,,,,,,,,,
,,,,,,,6013013f04461412e683baef,23,2023-07-20_11h43.24.643,templeton2A_SD_practice,2020.2.10,Win32,60,,,,,,,,,,,,,,,,,,2,,,,,,,,,,,,,,,,,,,,,,,,,,,,,,,,,,,,,,,,,,,,,,,,,,,,,,,,,,,,,,,,,,,,,,,,,,,,,,,,,,,,,,,,,,,,,,,,
,,,,,,,6013013f04461412e683baef,23,2023-07-20_11h43.24.643,templeton2A_SD_practice,2020.2.10,Win32,60,,,,,,,,,,,,,,,,,,2,,,,,,,,,,,,,,,,,,,,,,,,,,,,,,,,,,,,,,,,,,,,,,,,,,,,,,,,,,,,,,,,,,,,,,,,,,,,,,,,,,,,,,,,,,,,,,,,
,,,,,,,6013013f04461412e683baef,23,2023-07-20_11h43.24.643,templeton2A_SD_practice,2020.2.10,Win32,60,,,,,,,,,,,,,,,,,,2,,,,,,,,,,,,,,,,,,,,,,,,,,,,,,,,,,,,,,,,,,,,,,,,,,,,,,,,,,,,,,,,,,,,,,,,,,,,,,,,,,,,,,,,,,,,,,,,
,,,,,,,6013013f04461412e683baef,23,2023-07-20_11h43.24.643,templeton2A_SD_practice,2020.2.10,Win32,60,,,,,,,,,,,,,,,,,,2,,,,,,,,,,,,,,,,,,,,,,,,,,,,,,,,,,,,,,,,,,,,,,,,,,,,,,,,,,,,,,,,,,,,,,,,,,,,,,,,,,,,,,,,,,,,,,,,
,,,,,,,6013013f04461412e683baef,23,2023-07-20_11h43.24.643,templeton2A_SD_practice,2020.2.10,Win32,60,,,,,,,,,,,,,,,,,,2,,,,,,,,,,,,,,,,,,,,,,,,,,,,,,,,,,,,,,,,,,,,,,,,,,,,,,,,,,,,,,,,,,,,,,,,,,,,,,,,,,,,,,,,,,,,,,,,
,,,,,,,6013013f04461412e683baef,23,2023-07-20_11h43.24.643,templeton2A_SD_practice,2020.2.10,Win32,60,,,,,,,,,,,,,,,,,,2,,,,,,,,,,,,,,,,,,,,,,,,,,,,,,,,,,,,,,,,,,,,,,,,,,,,,,,,,,,,,,,,,,,,,,,,,,,,,,,,,,,,,,,,,,,,,,,,
,,,,,,,6013013f04461412e683baef,23,2023-07-20_11h43.24.643,templeton2A_SD_practice,2020.2.10,Win32,60,,,,,,,,,,,,,,,,,,2,,,,,,,,,,,,,,,,,,,,,,,,,,,,,,,,,,,,,,,,,,,,,,,,,,,,,,,,,,,,,,,,,,,,,,,,,,,,,,,,,,,,,,,,,,,,,,,,
,,,,,,,6013013f04461412e683baef,23,2023-07-20_11h43.24.643,templeton2A_SD_practice,2020.2.10,Win32,60,,,,,,,,,,,,,,,,,,2,,,,,,,,,,,,,,,,,,,,,,,,,,,,,,,,,,,,,,,,,,,,,,,,,,,,,,,,,,,,,,,,,,,,,,,,,,,,,,,,,,,,,,,,,,,,,,,,
,,,,,,,6013013f04461412e683baef,23,2023-07-20_11h43.24.643,templeton2A_SD_practice,2020.2.10,Win32,60,,,,,,,,,,,,,,,,,,2,,,,,,,,,,,,,,,,,,,,,,,,,,,,,,,,,,,,,,,,,,,,,,,,,,,,,,,,,,,,,,,,,,,,,,,,,,,,,,,,,,,,,,,,,,,,,,,,
,,,,,,,6013013f04461412e683baef,23,2023-07-20_11h43.24.643,templeton2A_SD_practice,2020.2.10,Win32,60,,,,,,,,,,,,,,,,,,2,,,,,,,,,,,,,,,,,,,,,,,,,,,,,,,,,,,,,,,,,,,,,,,,,,,,,,,,,,,,,,,,,,,,,,,,,,,,,,,,,,,,,,,,,,,,,,,,
,,,,,,,6013013f04461412e683baef,23,2023-07-20_11h43.24.643,templeton2A_SD_practice,2020.2.10,Win32,60,,,,,,,,,,,,,,,,,,2,,,,,,,,,,,,,,,,,,,,,,,,,,,,,,,,,,,,,,,,,,,,,,,,,,,,,,,,,,,,,,,,,,,,,,,,,,,,,,,,,,,,,,,,,,,,,,,,
,,,,,,,6013013f04461412e683baef,23,2023-07-20_11h43.24.643,templeton2A_SD_practice,2020.2.10,Win32,60,,,,,,,,,,,,,,,,,,2,,,,,,,,,,,,,,,,,,,,,,,,,,,,,,,,,,,,,,,,,,,,,,,,,,,,,,,,,,,,,,,,,,,,,,,,,,,,,,,,,,,,,,,,,,,,,,,,
,,,,,,,6013013f04461412e683baef,23,2023-07-20_11h43.24.643,templeton2A_SD_practice,2020.2.10,Win32,60,,,,,,,,,,,,,,,,,,2,,,,,,,,,,,,,,,,,,,,,,,,,,,,,,,,,,,,,,,,,,,,,,,,,,,,,,,,,,,,,,,,,,,,,,,,,,,,,,,,,,,,,,,,,,,,,,,,
,,,,,,,6013013f04461412e683baef,23,2023-07-20_11h43.24.643,templeton2A_SD_practice,2020.2.10,Win32,60,,,,,,,,,,,,,,,,,,2,,,,,,,,,,,,,,,,,,,,,,,,,,,,,,,,,,,,,,,,,,,,,,,,,,,,,,,,,,,,,,,,,,,,,,,,,,,,,,,,,,,,,,,,,,,,,,,,
,,,,,,,6013013f04461412e683baef,23,2023-07-20_11h43.24.643,templeton2A_SD_practice,2020.2.10,Win32,60,,,,,,,,,,,,,,,,,,2,,,,,,,,,,,,,,,,,,,,,,,,,,,,,,,,,,,,,,,,,,,,,,,,,,,,,,,,,,,,,,,,,,,,,,,,,,,,,,,,,,,,,,,,,,,,,,,,
,,,,,,,6013013f04461412e683baef,23,2023-07-20_11h43.24.643,templeton2A_SD_practice,2020.2.10,Win32,60,,,,,,,,,,,,,,,,,,2,,,,,,,,,,,,,,,,,,,,,,,,,,,,,,,,,,,,,,,,,,,,,,,,,,,,,,,,,,,,,,,,,,,,,,,,,,,,,,,,,,,,,,,,,,,,,,,,
,,,,,,,6013013f04461412e683baef,23,2023-07-20_11h43.24.643,templeton2A_SD_practice,2020.2.10,Win32,60,,,,,,,,,,,,,,,,,,2,,,,,,,,,,,,,,,,,,,,,,,,,,,,,,,,,,,,,,,,,,,,,,,,,,,,,,,,,,,,,,,,,,,,,,,,,,,,,,,,,,,,,,,,,,,,,,,,
,,,,,,,6013013f04461412e683baef,23,2023-07-20_11h43.24.643,templeton2A_SD_practice,2020.2.10,Win32,60,,,,,,,,,,,,,,,,,,2,,,,,,,,,,,,,,,,,,,,,,,,,,,,,,,,,,,,,,,,,,,,,,,,,,,,,,,,,,,,,,,,,,,,,,,,,,,,,,,,,,,,,,,,,,,,,,,,
,,,,,,,6013013f04461412e683baef,23,2023-07-20_11h43.24.643,templeton2A_SD_practice,2020.2.10,Win32,60,,,,,,,,,,,,,,,,,,2,,,,,,,,,,,,,,,,,,,,,,,,,,,,,,,,,,,,,,,,,,,,,,,,,,,,,,,,,,,,,,,,,,,,,,,,,,,,,,,,,,,,,,,,,,,,,,,,
,,,,,,,6013013f04461412e683baef,23,2023-07-20_11h43.24.643,templeton2A_SD_practice,2020.2.10,Win32,60,,,,,,,,,,,,,,,,,,2,,,,,,,,,,,,,,,,,,,,,,,,,,,,,,,,,,,,,,,,,,,,,,,,,,,,,,,,,,,,,,,,,,,,,,,,,,,,,,,,,,,,,,,,,,,,,,,,
,,,,,,,6013013f04461412e683baef,23,2023-07-20_11h43.24.643,templeton2A_SD_practice,2020.2.10,Win32,60,,,,,,,,,,,,,,,,,,2,,,,,,,,,,,,,,,,,,,,,,,,,,,,,,,,,,,,,,,,,,,,,,,,,,,,,,,,,,,,,,,,,,,,,,,,,,,,,,,,,,,,,,,,,,,,,,,,
,,,,,,,6013013f04461412e683baef,23,2023-07-20_11h43.24.643,templeton2A_SD_practice,2020.2.10,Win32,60,,,,,,,,,,,,,,,,,,2,,,,,,,,,,,,,,,,,,,,,,,,,,,,,,,,,,,,,,,,,,,,,,,,,,,,,,,,,,,,,,,,,,,,,,,,,,,,,,,,,,,,,,,,,,,,,,,,
,,,,,,,6013013f04461412e683baef,23,2023-07-20_11h43.24.643,templeton2A_SD_practice,2020.2.10,Win32,60,,,,,,,,,,,,,,,,,,2,,,,,,,,,,,,,,,,,,,,,,,,,,,,,,,,,,,,,,,,,,,,,,,,,,,,,,,,,,,,,,,,,,,,,,,,,,,,,,,,,,,,,,,,,,,,,,,,
,,,,,,,6013013f04461412e683baef,23,2023-07-20_11h43.24.643,templeton2A_SD_practice,2020.2.10,Win32,60,,,,,,,,,,,,,,,,,,2,,,,,,,,,,,,,,,,,,,,,,,,,,,,,,,,,,,,,,,,,,,,,,,,,,,,,,,,,,,,,,,,,,,,,,,,,,,,,,,,,,,,,,,,,,,,,,,,
,,,,,,,6013013f04461412e683baef,23,2023-07-20_11h43.24.643,templeton2A_SD_practice,2020.2.10,Win32,60,,,,,,,,,,,,,,,,,,2,,,,,,,,,,,,,,,,,,,,,,,,,,,,,,,,,,,,,,,,,,,,,,,,,,,,,,,,,,,,,,,,,,,,,,,,,,,,,,,,,,,,,,,,,,,,,,,,
,,,,,,,6013013f04461412e683baef,23,2023-07-20_11h43.24.643,templeton2A_SD_practice,2020.2.10,Win32,60,,,,,,,,,,,,,,,,,,2,,,,,,,,,,,,,,,,,,,,,,,,,,,,,,,,,,,,,,,,,,,,,,,,,,,,,,,,,,,,,,,,,,,,,,,,,,,,,,,,,,,,,,,,,,,,,,,,
,,,,,,,6013013f04461412e683baef,23,2023-07-20_11h43.24.643,templeton2A_SD_practice,2020.2.10,Win32,60,,,,,,,,,,,,,,,,,,2,,,,,,,,,,,,,,,,,,,,,,,,,,,,,,,,,,,,,,,,,,,,,,,,,,,,,,,,,,,,,,,,,,,,,,,,,,,,,,,,,,,,,,,,,,,,,,,,
,,,,,,,6013013f04461412e683baef,23,2023-07-20_11h43.24.643,templeton2A_SD_practice,2020.2.10,Win32,60,,,,,,,,,,,,,,,,,,2,,,,,,,,,,,,,,,,,,,,,,,,,,,,,,,,,,,,,,,,,,,,,,,,,,,,,,,,,,,,,,,,,,,,,,,,,,,,,,,,,,,,,,,,,,,,,,,,
,,,,,,,6013013f04461412e683baef,23,2023-07-20_11h43.24.643,templeton2A_SD_practice,2020.2.10,Win32,60,,,,,,,,,,,,,,,,,,1,,,,,,,,,,,,,,,,,,,,,,,,,,,,,,,,,,,,,,,,,,,,,,,,,,,,,,,,,,,,,,,,,,,,,,,,,,,,,,,,,,,,,,,,,,,,,,,,
,,,,,,,6013013f04461412e683baef,23,2023-07-20_11h43.24.643,templeton2A_SD_practice,2020.2.10,Win32,60,,,,,,,,,,,,,,,,,,,44.5,45.6,148.7382,,,,,,,,,,,,,,,,,,,,,,,,,,,,,,,,,,,,,,,,,,,,,,,,,,,,,,,,,,,,,,,,,,,,,,,,,,,,,,,,,,,,,,,,,,,,,
,,,,,,,6013013f04461412e683baef,23,2023-07-20_11h43.24.643,templeton2A_SD_practice,2020.2.10,Win32,60,,,,,,,,,,,,,,,,,,,,,,0.0014,5.980184159,,,,,,,,,,,,,,,,,,,,,,,,,,,,,,,,,,,,,,,,,,,,,,,,,,,,,,,,,,,,,,,,,,,,,,,,,,,,,,,,,,,,,,,,,,,
,,,,,,,6013013f04461412e683baef,23,2023-07-20_11h43.24.643,templeton2A_SD_practice,2020.2.10,Win32,60,,,,,,,,,,,,,,,,,,,,,,0.0171,5.980184159,,,,,,,,,,,,,,,,,,,,,,,,,,,,,,,,,,,,,,,,,,,,,,,,,,,,,,,,,,,,,,,,,,,,,,,,,,,,,,,,,,,,,,,,,,,
,,,,,,,6013013f04461412e683baef,23,2023-07-20_11h43.24.643,templeton2A_SD_practice,2020.2.10,Win32,60,,,,,,,,,,,,,,,,,,,,,,0.0344,5.980184159,,,,,,,,,,,,,,,,,,,,,,,,,,,,,,,,,,,,,,,,,,,,,,,,,,,,,,,,,,,,,,,,,,,,,,,,,,,,,,,,,,,,,,,,,,,
,,,,,,,6013013f04461412e683baef,23,2023-07-20_11h43.24.643,templeton2A_SD_practice,2020.2.10,Win32,60,,,,,,,,,,,,,,,,,,,,,,0.0502,5.980184159,,,,,,,,,,,,,,,,,,,,,,,,,,,,,,,,,,,,,,,,,,,,,,,,,,,,,,,,,,,,,,,,,,,,,,,,,,,,,,,,,,,,,,,,,,,
,,,,,,,6013013f04461412e683baef,23,2023-07-20_11h43.24.643,templeton2A_SD_practice,2020.2.10,Win32,60,,,,,,,,,,,,,,,,,,,,,,0.0676,5.980184159,,,,,,,,,,,,,,,,,,,,,,,,,,,,,,,,,,,,,,,,,,,,,,,,,,,,,,,,,,,,,,,,,,,,,,,,,,,,,,,,,,,,,,,,,,,
,,,,,,,6013013f04461412e683baef,23,2023-07-20_11h43.24.643,templeton2A_SD_practice,2020.2.10,Win32,60,,,,,,,,,,,,,,,,,,,,,,0.0819,5.980184159,,,,,,,,,,,,,,,,,,,,,,,,,,,,,,,,,,,,,,,,,,,,,,,,,,,,,,,,,,,,,,,,,,,,,,,,,,,,,,,,,,,,,,,,,,,
,,,,,,,6013013f04461412e683baef,23,2023-07-20_11h43.24.643,templeton2A_SD_practice,2020.2.10,Win32,60,,,,,,,,,,,,,,,,,,,,,,0.0985,5.980184159,,,,,,,,,,,,,,,,,,,,,,,,,,,,,,,,,,,,,,,,,,,,,,,,,,,,,,,,,,,,,,,,,,,,,,,,,,,,,,,,,,,,,,,,,,,
,,,,,,,6013013f04461412e683baef,23,2023-07-20_11h43.24.643,templeton2A_SD_practice,2020.2.10,Win32,60,,,,,,,,,,,,,,,,,,,,,,0.1154,5.980184159,,,,,,,,,,,,,,,,,,,,,,,,,,,,,,,,,,,,,,,,,,,,,,,,,,,,,,,,,,,,,,,,,,,,,,,,,,,,,,,,,,,,,,,,,,,
,,,,,,,6013013f04461412e683baef,23,2023-07-20_11h43.24.643,templeton2A_SD_practice,2020.2.10,Win32,60,,,,,,,,,,,,,,,,,,,,,,0.132,5.980184159,,,,,,,,,,,,,,,,,,,,,,,,,,,,,,,,,,,,,,,,,,,,,,,,,,,,,,,,,,,,,,,,,,,,,,,,,,,,,,,,,,,,,,,,,,,
,,,,,,,6013013f04461412e683baef,23,2023-07-20_11h43.24.643,templeton2A_SD_practice,2020.2.10,Win32,60,,,,,,,,,,,,,,,,,,,,,,0.1512,5.980184159,,,,,,,,,,,,,,,,,,,,,,,,,,,,,,,,,,,,,,,,,,,,,,,,,,,,,,,,,,,,,,,,,,,,,,,,,,,,,,,,,,,,,,,,,,,
,,,,,,,6013013f04461412e683baef,23,2023-07-20_11h43.24.643,templeton2A_SD_practice,2020.2.10,Win32,60,,,,,,,,,,,,,,,,,,,,,,0.1653,5.980184159,,,,,,,,,,,,,,,,,,,,,,,,,,,,,,,,,,,,,,,,,,,,,,,,,,,,,,,,,,,,,,,,,,,,,,,,,,,,,,,,,,,,,,,,,,,
,,,,,,,6013013f04461412e683baef,23,2023-07-20_11h43.24.643,templeton2A_SD_practice,2020.2.10,Win32,60,,,,,,,,,,,,,,,,,,,,,,0.1819,5.980184159,,,,,,,,,,,,,,,,,,,,,,,,,,,,,,,,,,,,,,,,,,,,,,,,,,,,,,,,,,,,,,,,,,,,,,,,,,,,,,,,,,,,,,,,,,,
,,,,,,,6013013f04461412e683baef,23,2023-07-20_11h43.24.643,templeton2A_SD_practice,2020.2.10,Win32,60,,,,,,,,,,,,,,,,,,,,,,0.1987,5.980184159,,,,,,,,,,,,,,,,,,,,,,,,,,,,,,,,,,,,,,,,,,,,,,,,,,,,,,,,,,,,,,,,,,,,,,,,,,,,,,,,,,,,,,,,,,,
,,,,,,,6013013f04461412e683baef,23,2023-07-20_11h43.24.643,templeton2A_SD_practice,2020.2.10,Win32,60,,,,,,,,,,,,,,,,,,,,,,0.215,5.980184159,,,,,,,,,,,,,,,,,,,,,,,,,,,,,,,,,,,,,,,,,,,,,,,,,,,,,,,,,,,,,,,,,,,,,,,,,,,,,,,,,,,,,,,,,,,
,,,,,,,6013013f04461412e683baef,23,2023-07-20_11h43.24.643,templeton2A_SD_practice,2020.2.10,Win32,60,,,,,,,,,,,,,,,,,,,,,,0.2316,5.980184159,,,,,,,,,,,,,,,,,,,,,,,,,,,,,,,,,,,,,,,,,,,,,,,,,,,,,,,,,,,,,,,,,,,,,,,,,,,,,,,,,,,,,,,,,,,
,,,,,,,6013013f04461412e683baef,23,2023-07-20_11h43.24.643,templeton2A_SD_practice,2020.2.10,Win32,60,,,,,,,,,,,,,,,,,,,,,,0.2483,5.980184159,,,,,,,,,,,,,,,,,,,,,,,,,,,,,,,,,,,,,,,,,,,,,,,,,,,,,,,,,,,,,,,,,,,,,,,,,,,,,,,,,,,,,,,,,,,
,,,,,,,6013013f04461412e683baef,23,2023-07-20_11h43.24.643,templeton2A_SD_practice,2020.2.10,Win32,60,,,,,,,,,,,,,,,,,,,,,,0.2671,5.980184159,,,,,,,,,,,,,,,,,,,,,,,,,,,,,,,,,,,,,,,,,,,,,,,,,,,,,,,,,,,,,,,,,,,,,,,,,,,,,,,,,,,,,,,,,,,
,,,,,,,6013013f04461412e683baef,23,2023-07-20_11h43.24.643,templeton2A_SD_practice,2020.2.10,Win32,60,,,,,,,,,,,,,,,,,,,,,,0.2818,5.980184159,,,,,,,,,,,,,,,,,,,,,,,,,,,,,,,,,,,,,,,,,,,,,,,,,,,,,,,,,,,,,,,,,,,,,,,,,,,,,,,,,,,,,,,,,,,
,,,,,,,6013013f04461412e683baef,23,2023-07-20_11h43.24.643,templeton2A_SD_practice,2020.2.10,Win32,60,,,,,,,,,,,,,,,,,,,,,,0.2985,5.980184159,,,,,,,,,,,,,,,,,,,,,,,,,,,,,,,,,,,,,,,,,,,,,,,,,,,,,,,,,,,,,,,,,,,,,,,,,,,,,,,,,,,,,,,,,,,
,,,,,,,6013013f04461412e683baef,23,2023-07-20_11h43.24.643,templeton2A_SD_practice,2020.2.10,Win32,60,,,,,,,,,,,,,,,,,,,,,,0.3146,5.980184159,,,,,,,,,,,,,,,,,,,,,,,,,,,,,,,,,,,,,,,,,,,,,,,,,,,,,,,,,,,,,,,,,,,,,,,,,,,,,,,,,,,,,,,,,,,
,,,,,,,6013013f04461412e683baef,23,2023-07-20_11h43.24.643,templeton2A_SD_practice,2020.2.10,Win32,60,,,,,,,,,,,,,,,,,,,,,,0.3319,5.980184159,,,,,,,,,,,,,,,,,,,,,,,,,,,,,,,,,,,,,,,,,,,,,,,,,,,,,,,,,,,,,,,,,,,,,,,,,,,,,,,,,,,,,,,,,,,
,,,,,,,6013013f04461412e683baef,23,2023-07-20_11h43.24.643,templeton2A_SD_practice,2020.2.10,Win32,60,,,,,,,,,,,,,,,,,,,,,,0.3483,5.980184159,,,,,,,,,,,,,,,,,,,,,,,,,,,,,,,,,,,,,,,,,,,,,,,,,,,,,,,,,,,,,,,,,,,,,,,,,,,,,,,,,,,,,,,,,,,
,,,,,,,6013013f04461412e683baef,23,2023-07-20_11h43.24.643,templeton2A_SD_practice,2020.2.10,Win32,60,,,,,,,,,,,,,,,,,,,,,,0.3651,5.980184159,,,,,,,,,,,,,,,,,,,,,,,,,,,,,,,,,,,,,,,,,,,,,,,,,,,,,,,,,,,,,,,,,,,,,,,,,,,,,,,,,,,,,,,,,,,
,,,,,,,6013013f04461412e683baef,23,2023-07-20_11h43.24.643,templeton2A_SD_practice,2020.2.10,Win32,60,,,,,,,,,,,,,,,,,,,,,,0.3819,5.980184159,,,,,,,,,,,,,,,,,,,,,,,,,,,,,,,,,,,,,,,,,,,,,,,,,,,,,,,,,,,,,,,,,,,,,,,,,,,,,,,,,,,,,,,,,,,
,,,,,,,6013013f04461412e683baef,23,2023-07-20_11h43.24.643,templeton2A_SD_practice,2020.2.10,Win32,60,,,,,,,,,,,,,,,,,,,,,,0.3982,5.980184159,,,,,,,,,,,,,,,,,,,,,,,,,,,,,,,,,,,,,,,,,,,,,,,,,,,,,,,,,,,,,,,,,,,,,,,,,,,,,,,,,,,,,,,,,,,
,,,,,,,6013013f04461412e683baef,23,2023-07-20_11h43.24.643,templeton2A_SD_practice,2020.2.10,Win32,60,,,,,,,,,,,,,,,,,,,,,,0.4149,5.980184159,,,,,,,,,,,,,,,,,,,,,,,,,,,,,,,,,,,,,,,,,,,,,,,,,,,,,,,,,,,,,,,,,,,,,,,,,,,,,,,,,,,,,,,,,,,
,,,,,,,6013013f04461412e683baef,23,2023-07-20_11h43.24.643,templeton2A_SD_practice,2020.2.10,Win32,60,,,,,,,,,,,,,,,,,,,,,,0.4314,5.980184159,,,,,,,,,,,,,,,,,,,,,,,,,,,,,,,,,,,,,,,,,,,,,,,,,,,,,,,,,,,,,,,,,,,,,,,,,,,,,,,,,,,,,,,,,,,
,,,,,,,6013013f04461412e683baef,23,2023-07-20_11h43.24.643,templeton2A_SD_practice,2020.2.10,Win32,60,,,,,,,,,,,,,,,,,,,,,,0.4484,5.980184159,,,,,,,,,,,,,,,,,,,,,,,,,,,,,,,,,,,,,,,,,,,,,,,,,,,,,,,,,,,,,,,,,,,,,,,,,,,,,,,,,,,,,,,,,,,
,,,,,,,6013013f04461412e683baef,23,2023-07-20_11h43.24.643,templeton2A_SD_practice,2020.2.10,Win32,60,,,,,,,,,,,,,,,,,,,,,,0.4652,5.980184159,,,,,,,,,,,,,,,,,,,,,,,,,,,,,,,,,,,,,,,,,,,,,,,,,,,,,,,,,,,,,,,,,,,,,,,,,,,,,,,,,,,,,,,,,,,
,,,,,,,6013013f04461412e683baef,23,2023-07-20_11h43.24.643,templeton2A_SD_practice,2020.2.10,Win32,60,,,,,,,,,,,,,,,,,,,,,,0.4814,5.980184159,,,,,,,,,,,,,,,,,,,,,,,,,,,,,,,,,,,,,,,,,,,,,,,,,,,,,,,,,,,,,,,,,,,,,,,,,,,,,,,,,,,,,,,,,,,
,,,,,,,6013013f04461412e683baef,23,2023-07-20_11h43.24.643,templeton2A_SD_practice,2020.2.10,Win32,60,,,,,,,,,,,,,,,,,,,,,,0.4983,5.980184159,,,,,,,,,,,,,,,,,,,,,,,,,,,,,,,,,,,,,,,,,,,,,,,,,,,,,,,,,,,,,,,,,,,,,,,,,,,,,,,,,,,,,,,,,,,
,,,,,,,6013013f04461412e683baef,23,2023-07-20_11h43.24.643,templeton2A_SD_practice,2020.2.10,Win32,60,,,,,,,,,,,,,,,,,,,,,,0.5149,5.980184159,,,,,,,,,,,,,,,,,,,,,,,,,,,,,,,,,,,,,,,,,,,,,,,,,,,,,,,,,,,,,,,,,,,,,,,,,,,,,,,,,,,,,,,,,,,
,,,,,,,6013013f04461412e683baef,23,2023-07-20_11h43.24.643,templeton2A_SD_practice,2020.2.10,Win32,60,,,,,,,,,,,,,,,,,,,,,,0.5318,5.980184159,,,,,,,,,,,,,,,,,,,,,,,,,,,,,,,,,,,,,,,,,,,,,,,,,,,,,,,,,,,,,,,,,,,,,,,,,,,,,,,,,,,,,,,,,,,
,,,,,,,6013013f04461412e683baef,23,2023-07-20_11h43.24.643,templeton2A_SD_practice,2020.2.10,Win32,60,,,,,,,,,,,,,,,,,,,,,,0.5483,5.980184159,,,,,,,,,,,,,,,,,,,,,,,,,,,,,,,,,,,,,,,,,,,,,,,,,,,,,,,,,,,,,,,,,,,,,,,,,,,,,,,,,,,,,,,,,,,
,,,,,,,6013013f04461412e683baef,23,2023-07-20_11h43.24.643,templeton2A_SD_practice,2020.2.10,Win32,60,,,,,,,,,,,,,,,,,,,,,,0.565,5.980184159,,,,,,,,,,,,,,,,,,,,,,,,,,,,,,,,,,,,,,,,,,,,,,,,,,,,,,,,,,,,,,,,,,,,,,,,,,,,,,,,,,,,,,,,,,,
,,,,,,,6013013f04461412e683baef,23,2023-07-20_11h43.24.643,templeton2A_SD_practice,2020.2.10,Win32,60,,,,,,,,,,,,,,,,,,,,,,0.5816,5.980184159,,,,,,,,,,,,,,,,,,,,,,,,,,,,,,,,,,,,,,,,,,,,,,,,,,,,,,,,,,,,,,,,,,,,,,,,,,,,,,,,,,,,,,,,,,,
,,,,,,,6013013f04461412e683baef,23,2023-07-20_11h43.24.643,templeton2A_SD_practice,2020.2.10,Win32,60,,,,,,,,,,,,,,,,,,,,,,0.5985,5.980184159,,,,,,,,,,,,,,,,,,,,,,,,,,,,,,,,,,,,,,,,,,,,,,,,,,,,,,,,,,,,,,,,,,,,,,,,,,,,,,,,,,,,,,,,,,,
,,,,,,,6013013f04461412e683baef,23,2023-07-20_11h43.24.643,templeton2A_SD_practice,2020.2.10,Win32,60,,,,,,,,,,,,,,,,,,,,,,0.6143,5.980184159,,,,,,,,,,,,,,,,,,,,,,,,,,,,,,,,,,,,,,,,,,,,,,,,,,,,,,,,,,,,,,,,,,,,,,,,,,,,,,,,,,,,,,,,,,,
,,,,,,,6013013f04461412e683baef,23,2023-07-20_11h43.24.643,templeton2A_SD_practice,2020.2.10,Win32,60,,,,,,,,,,,,,,,,,,,,,,0.6314,5.980184159,,,,,,,,,,,,,,,,,,,,,,,,,,,,,,,,,,,,,,,,,,,,,,,,,,,,,,,,,,,,,,,,,,,,,,,,,,,,,,,,,,,,,,,,,,,
,,,,,,,6013013f04461412e683baef,23,2023-07-20_11h43.24.643,templeton2A_SD_practice,2020.2.10,Win32,60,,,,,,,,,,,,,,,,,,,,,,0.6482,5.980184159,,,,,,,,,,,,,,,,,,,,,,,,,,,,,,,,,,,,,,,,,,,,,,,,,,,,,,,,,,,,,,,,,,,,,,,,,,,,,,,,,,,,,,,,,,,
,,,,,,,6013013f04461412e683baef,23,2023-07-20_11h43.24.643,templeton2A_SD_practice,2020.2.10,Win32,60,,,,,,,,,,,,,,,,,,,,,,0.6649,5.980184159,,,,,,,,,,,,,,,,,,,,,,,,,,,,,,,,,,,,,,,,,,,,,,,,,,,,,,,,,,,,,,,,,,,,,,,,,,,,,,,,,,,,,,,,,,,
,,,,,,,6013013f04461412e683baef,23,2023-07-20_11h43.24.643,templeton2A_SD_practice,2020.2.10,Win32,60,,,,,,,,,,,,,,,,,,,,,,0.681,5.980184159,,,,,,,,,,,,,,,,,,,,,,,,,,,,,,,,,,,,,,,,,,,,,,,,,,,,,,,,,,,,,,,,,,,,,,,,,,,,,,,,,,,,,,,,,,,
,,,,,,,6013013f04461412e683baef,23,2023-07-20_11h43.24.643,templeton2A_SD_practice,2020.2.10,Win32,60,,,,,,,,,,,,,,,,,,,,,,0.6976,5.980184159,,,,,,,,,,,,,,,,,,,,,,,,,,,,,,,,,,,,,,,,,,,,,,,,,,,,,,,,,,,,,,,,,,,,,,,,,,,,,,,,,,,,,,,,,,,
,,,,,,,6013013f04461412e683baef,23,2023-07-20_11h43.24.643,templeton2A_SD_practice,2020.2.10,Win32,60,,,,,,,,,,,,,,,,,,,,,,0.7142,5.980184159,,,,,,,,,,,,,,,,,,,,,,,,,,,,,,,,,,,,,,,,,,,,,,,,,,,,,,,,,,,,,,,,,,,,,,,,,,,,,,,,,,,,,,,,,,,
,,,,,,,6013013f04461412e683baef,23,2023-07-20_11h43.24.643,templeton2A_SD_practice,2020.2.10,Win32,60,,,,,,,,,,,,,,,,,,,,,,0.7309,5.980184159,,,,,,,,,,,,,,,,,,,,,,,,,,,,,,,,,,,,,,,,,,,,,,,,,,,,,,,,,,,,,,,,,,,,,,,,,,,,,,,,,,,,,,,,,,,
,,,,,,,6013013f04461412e683baef,23,2023-07-20_11h43.24.643,templeton2A_SD_practice,2020.2.10,Win32,60,,,,,,,,,,,,,,,,,,,,,,0.7477,5.980184159,,,,,,,,,,,,,,,,,,,,,,,,,,,,,,,,,,,,,,,,,,,,,,,,,,,,,,,,,,,,,,,,,,,,,,,,,,,,,,,,,,,,,,,,,,,
,,,,,,,6013013f04461412e683baef,23,2023-07-20_11h43.24.643,templeton2A_SD_practice,2020.2.10,Win32,60,,,,,,,,,,,,,,,,,,,,,,0.7646,5.980184159,,,,,,,,,,,,,,,,,,,,,,,,,,,,,,,,,,,,,,,,,,,,,,,,,,,,,,,,,,,,,,,,,,,,,,,,,,,,,,,,,,,,,,,,,,,
,,,,,,,6013013f04461412e683baef,23,2023-07-20_11h43.24.643,templeton2A_SD_practice,2020.2.10,Win32,60,,,,,,,,,,,,,,,,,,,,,,0.7815,5.980184159,,,,,,,,,,,,,,,,,,,,,,,,,,,,,,,,,,,,,,,,,,,,,,,,,,,,,,,,,,,,,,,,,,,,,,,,,,,,,,,,,,,,,,,,,,,
,,,,,,,6013013f04461412e683baef,23,2023-07-20_11h43.24.643,templeton2A_SD_practice,2020.2.10,Win32,60,,,,,,,,,,,,,,,,,,,,,,0.7981,5.980184159,,,,,,,,,,,,,,,,,,,,,,,,,,,,,,,,,,,,,,,,,,,,,,,,,,,,,,,,,,,,,,,,,,,,,,,,,,,,,,,,,,,,,,,,,,,
,,,,,,,6013013f04461412e683baef,23,2023-07-20_11h43.24.643,templeton2A_SD_practice,2020.2.10,Win32,60,,,,,,,,,,,,,,,,,,,,,,0.8146,5.980184159,,,,,,,,,,,,,,,,,,,,,,,,,,,,,,,,,,,,,,,,,,,,,,,,,,,,,,,,,,,,,,,,,,,,,,,,,,,,,,,,,,,,,,,,,,,
,,,,,,,6013013f04461412e683baef,23,2023-07-20_11h43.24.643,templeton2A_SD_practice,2020.2.10,Win32,60,,,,,,,,,,,,,,,,,,,,,,0.8313,5.980184159,,,,,,,,,,,,,,,,,,,,,,,,,,,,,,,,,,,,,,,,,,,,,,,,,,,,,,,,,,,,,,,,,,,,,,,,,,,,,,,,,,,,,,,,,,,
,,,,,,,6013013f04461412e683baef,23,2023-07-20_11h43.24.643,templeton2A_SD_practice,2020.2.10,Win32,60,,,,,,,,,,,,,,,,,,,,,,0.8477,5.980184159,,,,,,,,,,,,,,,,,,,,,,,,,,,,,,,,,,,,,,,,,,,,,,,,,,,,,,,,,,,,,,,,,,,,,,,,,,,,,,,,,,,,,,,,,,,
,,,,,,,6013013f04461412e683baef,23,2023-07-20_11h43.24.643,templeton2A_SD_practice,2020.2.10,Win32,60,,,,,,,,,,,,,,,,,,,,,,0.8646,5.980184159,,,,,,,,,,,,,,,,,,,,,,,,,,,,,,,,,,,,,,,,,,,,,,,,,,,,,,,,,,,,,,,,,,,,,,,,,,,,,,,,,,,,,,,,,,,
,,,,,,,6013013f04461412e683baef,23,2023-07-20_11h43.24.643,templeton2A_SD_practice,2020.2.10,Win32,60,,,,,,,,,,,,,,,,,,,,,,0.8814,5.980184159,,,,,,,,,,,,,,,,,,,,,,,,,,,,,,,,,,,,,,,,,,,,,,,,,,,,,,,,,,,,,,,,,,,,,,,,,,,,,,,,,,,,,,,,,,,
,,,,,,,6013013f04461412e683baef,23,2023-07-20_11h43.24.643,templeton2A_SD_practice,2020.2.10,Win32,60,,,,,,,,,,,,,,,,,,,,,,0.898,5.980184159,,,,,,,,,,,,,,,,,,,,,,,,,,,,,,,,,,,,,,,,,,,,,,,,,,,,,,,,,,,,,,,,,,,,,,,,,,,,,,,,,,,,,,,,,,,
,,,,,,,6013013f04461412e683baef,23,2023-07-20_11h43.24.643,templeton2A_SD_practice,2020.2.10,Win32,60,,,,,,,,,,,,,,,,,,,,,,0.9147,5.980184159,,,,,,,,,,,,,,,,,,,,,,,,,,,,,,,,,,,,,,,,,,,,,,,,,,,,,,,,,,,,,,,,,,,,,,,,,,,,,,,,,,,,,,,,,,,
,,,,,,,6013013f04461412e683baef,23,2023-07-20_11h43.24.643,templeton2A_SD_practice,2020.2.10,Win32,60,,,,,,,,,,,,,,,,,,,,,,0.9308,5.980184159,,,,,,,,,,,,,,,,,,,,,,,,,,,,,,,,,,,,,,,,,,,,,,,,,,,,,,,,,,,,,,,,,,,,,,,,,,,,,,,,,,,,,,,,,,,
,,,,,,,6013013f04461412e683baef,23,2023-07-20_11h43.24.643,templeton2A_SD_practice,2020.2.10,Win32,60,,,,,,,,,,,,,,,,,,,,,,0.9478,5.980184159,,,,,,,,,,,,,,,,,,,,,,,,,,,,,,,,,,,,,,,,,,,,,,,,,,,,,,,,,,,,,,,,,,,,,,,,,,,,,,,,,,,,,,,,,,,
,,,,,,,6013013f04461412e683baef,23,2023-07-20_11h43.24.643,templeton2A_SD_practice,2020.2.10,Win32,60,,,,,,,,,,,,,,,,,,,,,,0.9643,5.980184159,,,,,,,,,,,,,,,,,,,,,,,,,,,,,,,,,,,,,,,,,,,,,,,,,,,,,,,,,,,,,,,,,,,,,,,,,,,,,,,,,,,,,,,,,,,
,,,,,,,6013013f04461412e683baef,23,2023-07-20_11h43.24.643,templeton2A_SD_practice,2020.2.10,Win32,60,,,,,,,,,,,,,,,,,,,,,,0.9812,5.980184159,,,,,,,,,,,,,,,,,,,,,,,,,,,,,,,,,,,,,,,,,,,,,,,,,,,,,,,,,,,,,,,,,,,,,,,,,,,,,,,,,,,,,,,,,,,
,,,,,,,6013013f04461412e683baef,23,2023-07-20_11h43.24.643,templeton2A_SD_practice,2020.2.10,Win32,60,,,,,,,,,,,,,,,,,,,,,,0.9978,5.980184159,,,,,,,,,,,,,,,,,,,,,,,,,,,,,,,,,,,,,,,,,,,,,,,,,,,,,,,,,,,,,,,,,,,,,,,,,,,,,,,,,,,,,,,,,,,
,,,,,,,6013013f04461412e683baef,23,2023-07-20_11h43.24.643,templeton2A_SD_practice,2020.2.10,Win32,60,,,,,,,,,,,,,,,,,,,,,,1.0142,5.980184159,,,,,,,,,,,,,,,,,,,,,,,,,,,,,,,,,,,,,,,,,,,,,,,,,,,,,,,,,,,,,,,,,,,,,,,,,,,,,,,,,,,,,,,,,,,
,,,,,,,6013013f04461412e683baef,23,2023-07-20_11h43.24.643,templeton2A_SD_practice,2020.2.10,Win32,60,,,,,,,,,,,,,,,,,,,,,,1.0313,5.980184159,,,,,,,,,,,,,,,,,,,,,,,,,,,,,,,,,,,,,,,,,,,,,,,,,,,,,,,,,,,,,,,,,,,,,,,,,,,,,,,,,,,,,,,,,,,
,,,,,,,6013013f04461412e683baef,23,2023-07-20_11h43.24.643,templeton2A_SD_practice,2020.2.10,Win32,60,,,,,,,,,,,,,,,,,,,,,,1.0478,5.980184159,,,,,,,,,,,,,,,,,,,,,,,,,,,,,,,,,,,,,,,,,,,,,,,,,,,,,,,,,,,,,,,,,,,,,,,,,,,,,,,,,,,,,,,,,,,
,,,,,,,6013013f04461412e683baef,23,2023-07-20_11h43.24.643,templeton2A_SD_practice,2020.2.10,Win32,60,,,,,,,,,,,,,,,,,,,,,,1.0644,5.980184159,,,,,,,,,,,,,,,,,,,,,,,,,,,,,,,,,,,,,,,,,,,,,,,,,,,,,,,,,,,,,,,,,,,,,,,,,,,,,,,,,,,,,,,,,,,
,,,,,,,6013013f04461412e683baef,23,2023-07-20_11h43.24.643,templeton2A_SD_practice,2020.2.10,Win32,60,,,,,,,,,,,,,,,,,,,,,,1.0811,5.980184159,,,,,,,,,,,,,,,,,,,,,,,,,,,,,,,,,,,,,,,,,,,,,,,,,,,,,,,,,,,,,,,,,,,,,,,,,,,,,,,,,,,,,,,,,,,
,,,,,,,6013013f04461412e683baef,23,2023-07-20_11h43.24.643,templeton2A_SD_practice,2020.2.10,Win32,60,,,,,,,,,,,,,,,,,,,,,,1.0978,5.980184159,,,,,,,,,,,,,,,,,,,,,,,,,,,,,,,,,,,,,,,,,,,,,,,,,,,,,,,,,,,,,,,,,,,,,,,,,,,,,,,,,,,,,,,,,,,
,,,,,,,6013013f04461412e683baef,23,2023-07-20_11h43.24.643,templeton2A_SD_practice,2020.2.10,Win32,60,,,,,,,,,,,,,,,,,,,,,,1.1144,5.980184159,,,,,,,,,,,,,,,,,,,,,,,,,,,,,,,,,,,,,,,,,,,,,,,,,,,,,,,,,,,,,,,,,,,,,,,,,,,,,,,,,,,,,,,,,,,
,,,,,,,6013013f04461412e683baef,23,2023-07-20_11h43.24.643,templeton2A_SD_practice,2020.2.10,Win32,60,,,,,,,,,,,,,,,,,,,,,,1.131,5.980184159,,,,,,,,,,,,,,,,,,,,,,,,,,,,,,,,,,,,,,,,,,,,,,,,,,,,,,,,,,,,,,,,,,,,,,,,,,,,,,,,,,,,,,,,,,,
,,,,,,,6013013f04461412e683baef,23,2023-07-20_11h43.24.643,templeton2A_SD_practice,2020.2.10,Win32,60,,,,,,,,,,,,,,,,,,,,,,1.1481,5.980184159,,,,,,,,,,,,,,,,,,,,,,,,,,,,,,,,,,,,,,,,,,,,,,,,,,,,,,,,,,,,,,,,,,,,,,,,,,,,,,,,,,,,,,,,,,,
,,,,,,,6013013f04461412e683baef,23,2023-07-20_11h43.24.643,templeton2A_SD_practice,2020.2.10,Win32,60,,,,,,,,,,,,,,,,,,,,,,1.1644,5.980184159,,,,,,,,,,,,,,,,,,,,,,,,,,,,,,,,,,,,,,,,,,,,,,,,,,,,,,,,,,,,,,,,,,,,,,,,,,,,,,,,,,,,,,,,,,,
,,,,,,,6013013f04461412e683baef,23,2023-07-20_11h43.24.643,templeton2A_SD_practice,2020.2.10,Win32,60,,,,,,,,,,,,,,,,,,,,,,1.1806,5.980184159,,,,,,,,,,,,,,,,,,,,,,,,,,,,,,,,,,,,,,,,,,,,,,,,,,,,,,,,,,,,,,,,,,,,,,,,,,,,,,,,,,,,,,,,,,,
,,,,,,,6013013f04461412e683baef,23,2023-07-20_11h43.24.643,templeton2A_SD_practice,2020.2.10,Win32,60,,,,,,,,,,,,,,,,,,,,,,1.1974,5.980184159,,,,,,,,,,,,,,,,,,,,,,,,,,,,,,,,,,,,,,,,,,,,,,,,,,,,,,,,,,,,,,,,,,,,,,,,,,,,,,,,,,,,,,,,,,,
,,,,,,,6013013f04461412e683baef,23,2023-07-20_11h43.24.643,templeton2A_SD_practice,2020.2.10,Win32,60,,,,,,,,,,,,,,,,,,,,,,1.2141,5.980184159,,,,,,,,,,,,,,,,,,,,,,,,,,,,,,,,,,,,,,,,,,,,,,,,,,,,,,,,,,,,,,,,,,,,,,,,,,,,,,,,,,,,,,,,,,,
,,,,,,,6013013f04461412e683baef,23,2023-07-20_11h43.24.643,templeton2A_SD_practice,2020.2.10,Win32,60,,,,,,,,,,,,,,,,,,,,,,1.2307,5.980184159,,,,,,,,,,,,,,,,,,,,,,,,,,,,,,,,,,,,,,,,,,,,,,,,,,,,,,,,,,,,,,,,,,,,,,,,,,,,,,,,,,,,,,,,,,,
,,,,,,,6013013f04461412e683baef,23,2023-07-20_11h43.24.643,templeton2A_SD_practice,2020.2.10,Win32,60,,,,,,,,,,,,,,,,,,,,,,1.2493,5.980184159,,,,,,,,,,,,,,,,,,,,,,,,,,,,,,,,,,,,,,,,,,,,,,,,,,,,,,,,,,,,,,,,,,,,,,,,,,,,,,,,,,,,,,,,,,,
,,,,,,,6013013f04461412e683baef,23,2023-07-20_11h43.24.643,templeton2A_SD_practice,2020.2.10,Win32,60,,,,,,,,,,,,,,,,,,,,,,1.2637,5.980184159,,,,,,,,,,,,,,,,,,,,,,,,,,,,,,,,,,,,,,,,,,,,,,,,,,,,,,,,,,,,,,,,,,,,,,,,,,,,,,,,,,,,,,,,,,,
,,,,,,,6013013f04461412e683baef,23,2023-07-20_11h43.24.643,templeton2A_SD_practice,2020.2.10,Win32,60,,,,,,,,,,,,,,,,,,,,,,1.2807,5.980184159,,,,,,,,,,,,,,,,,,,,,,,,,,,,,,,,,,,,,,,,,,,,,,,,,,,,,,,,,,,,,,,,,,,,,,,,,,,,,,,,,,,,,,,,,,,
,,,,,,,6013013f04461412e683baef,23,2023-07-20_11h43.24.643,templeton2A_SD_practice,2020.2.10,Win32,60,,,,,,,,,,,,,,,,,,,,,,1.2978,5.980184159,,,,,,,,,,,,,,,,,,,,,,,,,,,,,,,,,,,,,,,,,,,,,,,,,,,,,,,,,,,,,,,,,,,,,,,,,,,,,,,,,,,,,,,,,,,
,,,,,,,6013013f04461412e683baef,23,2023-07-20_11h43.24.643,templeton2A_SD_practice,2020.2.10,Win32,60,,,,,,,,,,,,,,,,,,,,,,1.3139,5.980184159,,,,,,,,,,,,,,,,,,,,,,,,,,,,,,,,,,,,,,,,,,,,,,,,,,,,,,,,,,,,,,,,,,,,,,,,,,,,,,,,,,,,,,,,,,,
,,,,,,,6013013f04461412e683baef,23,2023-07-20_11h43.24.643,templeton2A_SD_practice,2020.2.10,Win32,60,,,,,,,,,,,,,,,,,,,,,,1.3306,5.980184159,,,,,,,,,,,,,,,,,,,,,,,,,,,,,,,,,,,,,,,,,,,,,,,,,,,,,,,,,,,,,,,,,,,,,,,,,,,,,,,,,,,,,,,,,,,
,,,,,,,6013013f04461412e683baef,23,2023-07-20_11h43.24.643,templeton2A_SD_practice,2020.2.10,Win32,60,,,,,,,,,,,,,,,,,,,,,,1.3473,5.980184159,,,,,,,,,,,,,,,,,,,,,,,,,,,,,,,,,,,,,,,,,,,,,,,,,,,,,,,,,,,,,,,,,,,,,,,,,,,,,,,,,,,,,,,,,,,
,,,,,,,6013013f04461412e683baef,23,2023-07-20_11h43.24.643,templeton2A_SD_practice,2020.2.10,Win32,60,,,,,,,,,,,,,,,,,,,,,,1.3639,5.980184159,,,,,,,,,,,,,,,,,,,,,,,,,,,,,,,,,,,,,,,,,,,,,,,,,,,,,,,,,,,,,,,,,,,,,,,,,,,,,,,,,,,,,,,,,,,
,,,,,,,6013013f04461412e683baef,23,2023-07-20_11h43.24.643,templeton2A_SD_practice,2020.2.10,Win32,60,,,,,,,,,,,,,,,,,,,,,,1.3809,5.980184159,,,,,,,,,,,,,,,,,,,,,,,,,,,,,,,,,,,,,,,,,,,,,,,,,,,,,,,,,,,,,,,,,,,,,,,,,,,,,,,,,,,,,,,,,,,
,,,,,,,6013013f04461412e683baef,23,2023-07-20_11h43.24.643,templeton2A_SD_practice,2020.2.10,Win32,60,,,,,,,,,,,,,,,,,,,,,,1.3975,5.980184159,,,,,,,,,,,,,,,,,,,,,,,,,,,,,,,,,,,,,,,,,,,,,,,,,,,,,,,,,,,,,,,,,,,,,,,,,,,,,,,,,,,,,,,,,,,
,,,,,,,6013013f04461412e683baef,23,2023-07-20_11h43.24.643,templeton2A_SD_practice,2020.2.10,Win32,60,,,,,,,,,,,,,,,,,,,,,,1.414,5.980184159,,,,,,,,,,,,,,,,,,,,,,,,,,,,,,,,,,,,,,,,,,,,,,,,,,,,,,,,,,,,,,,,,,,,,,,,,,,,,,,,,,,,,,,,,,,
,,,,,,,6013013f04461412e683baef,23,2023-07-20_11h43.24.643,templeton2A_SD_practice,2020.2.10,Win32,60,,,,,,,,,,,,,,,,,,,,,,1.4336,5.980184159,,,,,,,,,,,,,,,,,,,,,,,,,,,,,,,,,,,,,,,,,,,,,,,,,,,,,,,,,,,,,,,,,,,,,,,,,,,,,,,,,,,,,,,,,,,
,,,,,,,6013013f04461412e683baef,23,2023-07-20_11h43.24.643,templeton2A_SD_practice,2020.2.10,Win32,60,,,,,,,,,,,,,,,,,,,,,,1.4472,5.980184159,,,,,,,,,,,,,,,,,,,,,,,,,,,,,,,,,,,,,,,,,,,,,,,,,,,,,,,,,,,,,,,,,,,,,,,,,,,,,,,,,,,,,,,,,,,
,,,,,,,6013013f04461412e683baef,23,2023-07-20_11h43.24.643,templeton2A_SD_practice,2020.2.10,Win32,60,,,,,,,,,,,,,,,,,,,,,,1.4638,5.980184159,,,,,,,,,,,,,,,,,,,,,,,,,,,,,,,,,,,,,,,,,,,,,,,,,,,,,,,,,,,,,,,,,,,,,,,,,,,,,,,,,,,,,,,,,,,
,,,,,,,6013013f04461412e683baef,23,2023-07-20_11h43.24.643,templeton2A_SD_practice,2020.2.10,Win32,60,,,,,,,,,,,,,,,,,,,,,,1.4807,5.980184159,,,,,,,,,,,,,,,,,,,,,,,,,,,,,,,,,,,,,,,,,,,,,,,,,,,,,,,,,,,,,,,,,,,,,,,,,,,,,,,,,,,,,,,,,,,
,,,,,,,6013013f04461412e683baef,23,2023-07-20_11h43.24.643,templeton2A_SD_practice,2020.2.10,Win32,60,,,,,,,,,,,,,,,,,,,,,,1.4971,5.980184159,,,,,,,,,,,,,,,,,,,,,,,,,,,,,,,,,,,,,,,,,,,,,,,,,,,,,,,,,,,,,,,,,,,,,,,,,,,,,,,,,,,,,,,,,,,
,,,,,,,6013013f04461412e683baef,23,2023-07-20_11h43.24.643,templeton2A_SD_practice,2020.2.10,Win32,60,,,,,,,,,,,,,,,,,,,,,,1.5142,5.980184159,,,,,,,,,,,,,,,,,,,,,,,,,,,,,,,,,,,,,,,,,,,,,,,,,,,,,,,,,,,,,,,,,,,,,,,,,,,,,,,,,,,,,,,,,,,
,,,,,,,6013013f04461412e683baef,23,2023-07-20_11h43.24.643,templeton2A_SD_practice,2020.2.10,Win32,60,,,,,,,,,,,,,,,,,,,,,,1.5309,5.980184159,,,,,,,,,,,,,,,,,,,,,,,,,,,,,,,,,,,,,,,,,,,,,,,,,,,,,,,,,,,,,,,,,,,,,,,,,,,,,,,,,,,,,,,,,,,
,,,,,,,6013013f04461412e683baef,23,2023-07-20_11h43.24.643,templeton2A_SD_practice,2020.2.10,Win32,60,,,,,,,,,,,,,,,,,,,,,,1.5473,5.980184159,,,,,,,,,,,,,,,,,,,,,,,,,,,,,,,,,,,,,,,,,,,,,,,,,,,,,,,,,,,,,,,,,,,,,,,,,,,,,,,,,,,,,,,,,,,
,,,,,,,6013013f04461412e683baef,23,2023-07-20_11h43.24.643,templeton2A_SD_practice,2020.2.10,Win32,60,,,,,,,,,,,,,,,,,,,,,,1.5635,5.980184159,,,,,,,,,,,,,,,,,,,,,,,,,,,,,,,,,,,,,,,,,,,,,,,,,,,,,,,,,,,,,,,,,,,,,,,,,,,,,,,,,,,,,,,,,,,
,,,,,,,6013013f04461412e683baef,23,2023-07-20_11h43.24.643,templeton2A_SD_practice,2020.2.10,Win32,60,,,,,,,,,,,,,,,,,,,,,,1.5805,5.980184159,,,,,,,,,,,,,,,,,,,,,,,,,,,,,,,,,,,,,,,,,,,,,,,,,,,,,,,,,,,,,,,,,,,,,,,,,,,,,,,,,,,,,,,,,,,
,,,,,,,6013013f04461412e683baef,23,2023-07-20_11h43.24.643,templeton2A_SD_practice,2020.2.10,Win32,60,,,,,,,,,,,,,,,,,,,,,,1.5974,5.980184159,,,,,,,,,,,,,,,,,,,,,,,,,,,,,,,,,,,,,,,,,,,,,,,,,,,,,,,,,,,,,,,,,,,,,,,,,,,,,,,,,,,,,,,,,,,
,,,,,,,6013013f04461412e683baef,23,2023-07-20_11h43.24.643,templeton2A_SD_practice,2020.2.10,Win32,60,,,,,,,,,,,,,,,,,,,,,,1.6138,5.980184159,,,,,,,,,,,,,,,,,,,,,,,,,,,,,,,,,,,,,,,,,,,,,,,,,,,,,,,,,,,,,,,,,,,,,,,,,,,,,,,,,,,,,,,,,,,
,,,,,,,6013013f04461412e683baef,23,2023-07-20_11h43.24.643,templeton2A_SD_practice,2020.2.10,Win32,60,,,,,,,,,,,,,,,,,,,,,,1.6306,5.980184159,,,,,,,,,,,,,,,,,,,,,,,,,,,,,,,,,,,,,,,,,,,,,,,,,,,,,,,,,,,,,,,,,,,,,,,,,,,,,,,,,,,,,,,,,,,
,,,,,,,6013013f04461412e683baef,23,2023-07-20_11h43.24.643,templeton2A_SD_practice,2020.2.10,Win32,60,,,,,,,,,,,,,,,,,,,,,,1.6472,5.980184159,,,,,,,,,,,,,,,,,,,,,,,,,,,,,,,,,,,,,,,,,,,,,,,,,,,,,,,,,,,,,,,,,,,,,,,,,,,,,,,,,,,,,,,,,,,
,,,,,,,6013013f04461412e683baef,23,2023-07-20_11h43.24.643,templeton2A_SD_practice,2020.2.10,Win32,60,,,,,,,,,,,,,,,,,,,,,,1.6639,5.980184159,,,,,,,,,,,,,,,,,,,,,,,,,,,,,,,,,,,,,,,,,,,,,,,,,,,,,,,,,,,,,,,,,,,,,,,,,,,,,,,,,,,,,,,,,,,
,,,,,,,6013013f04461412e683baef,23,2023-07-20_11h43.24.643,templeton2A_SD_practice,2020.2.10,Win32,60,,,,,,,,,,,,,,,,,,,,,,1.6806,5.980184159,,,,,,,,,,,,,,,,,,,,,,,,,,,,,,,,,,,,,,,,,,,,,,,,,,,,,,,,,,,,,,,,,,,,,,,,,,,,,,,,,,,,,,,,,,,
,,,,,,,6013013f04461412e683baef,23,2023-07-20_11h43.24.643,templeton2A_SD_practice,2020.2.10,Win32,60,,,,,,,,,,,,,,,,,,,,,,1.6972,5.980184159,,,,,,,,,,,,,,,,,,,,,,,,,,,,,,,,,,,,,,,,,,,,,,,,,,,,,,,,,,,,,,,,,,,,,,,,,,,,,,,,,,,,,,,,,,,
,,,,,,,6013013f04461412e683baef,23,2023-07-20_11h43.24.643,templeton2A_SD_practice,2020.2.10,Win32,60,,,,,,,,,,,,,,,,,,,,,,1.7136,5.980184159,,,,,,,,,,,,,,,,,,,,,,,,,,,,,,,,,,,,,,,,,,,,,,,,,,,,,,,,,,,,,,,,,,,,,,,,,,,,,,,,,,,,,,,,,,,
,,,,,,,6013013f04461412e683baef,23,2023-07-20_11h43.24.643,templeton2A_SD_practice,2020.2.10,Win32,60,,,,,,,,,,,,,,,,,,,,,,1.7305,5.980184159,,,,,,,,,,,,,,,,,,,,,,,,,,,,,,,,,,,,,,,,,,,,,,,,,,,,,,,,,,,,,,,,,,,,,,,,,,,,,,,,,,,,,,,,,,,
,,,,,,,6013013f04461412e683baef,23,2023-07-20_11h43.24.643,templeton2A_SD_practice,2020.2.10,Win32,60,,,,,,,,,,,,,,,,,,,,,,1.7468,5.980184159,,,,,,,,,,,,,,,,,,,,,,,,,,,,,,,,,,,,,,,,,,,,,,,,,,,,,,,,,,,,,,,,,,,,,,,,,,,,,,,,,,,,,,,,,,,
,,,,,,,6013013f04461412e683baef,23,2023-07-20_11h43.24.643,templeton2A_SD_practice,2020.2.10,Win32,60,,,,,,,,,,,,,,,,,,,,,,1.7652,5.980184159,,,,,,,,,,,,,,,,,,,,,,,,,,,,,,,,,,,,,,,,,,,,,,,,,,,,,,,,,,,,,,,,,,,,,,,,,,,,,,,,,,,,,,,,,,,
,,,,,,,6013013f04461412e683baef,23,2023-07-20_11h43.24.643,templeton2A_SD_practice,2020.2.10,Win32,60,,,,,,,,,,,,,,,,,,,,,,1.7805,5.980184159,,,,,,,,,,,,,,,,,,,,,,,,,,,,,,,,,,,,,,,,,,,,,,,,,,,,,,,,,,,,,,,,,,,,,,,,,,,,,,,,,,,,,,,,,,,
,,,,,,,6013013f04461412e683baef,23,2023-07-20_11h43.24.643,templeton2A_SD_practice,2020.2.10,Win32,60,,,,,,,,,,,,,,,,,,,,,,1.7965,5.980184159,,,,,,,,,,,,,,,,,,,,,,,,,,,,,,,,,,,,,,,,,,,,,,,,,,,,,,,,,,,,,,,,,,,,,,,,,,,,,,,,,,,,,,,,,,,
,,,,,,,6013013f04461412e683baef,23,2023-07-20_11h43.24.643,templeton2A_SD_practice,2020.2.10,Win32,60,,,,,,,,,,,,,,,,,,,,,,1.8132,5.980184159,,,,,,,,,,,,,,,,,,,,,,,,,,,,,,,,,,,,,,,,,,,,,,,,,,,,,,,,,,,,,,,,,,,,,,,,,,,,,,,,,,,,,,,,,,,
,,,,,,,6013013f04461412e683baef,23,2023-07-20_11h43.24.643,templeton2A_SD_practice,2020.2.10,Win32,60,,,,,,,,,,,,,,,,,,,,,,1.8298,5.980184159,,,,,,,,,,,,,,,,,,,,,,,,,,,,,,,,,,,,,,,,,,,,,,,,,,,,,,,,,,,,,,,,,,,,,,,,,,,,,,,,,,,,,,,,,,,
,,,,,,,6013013f04461412e683baef,23,2023-07-20_11h43.24.643,templeton2A_SD_practice,2020.2.10,Win32,60,,,,,,,,,,,,,,,,,,,,,,1.8468,5.980184159,,,,,,,,,,,,,,,,,,,,,,,,,,,,,,,,,,,,,,,,,,,,,,,,,,,,,,,,,,,,,,,,,,,,,,,,,,,,,,,,,,,,,,,,,,,
,,,,,,,6013013f04461412e683baef,23,2023-07-20_11h43.24.643,templeton2A_SD_practice,2020.2.10,Win32,60,,,,,,,,,,,,,,,,,,,,,,1.8638,5.980184159,,,,,,,,,,,,,,,,,,,,,,,,,,,,,,,,,,,,,,,,,,,,,,,,,,,,,,,,,,,,,,,,,,,,,,,,,,,,,,,,,,,,,,,,,,,
,,,,,,,6013013f04461412e683baef,23,2023-07-20_11h43.24.643,templeton2A_SD_practice,2020.2.10,Win32,60,,,,,,,,,,,,,,,,,,,,,,1.88,5.980184159,,,,,,,,,,,,,,,,,,,,,,,,,,,,,,,,,,,,,,,,,,,,,,,,,,,,,,,,,,,,,,,,,,,,,,,,,,,,,,,,,,,,,,,,,,,
,,,,,,,6013013f04461412e683baef,23,2023-07-20_11h43.24.643,templeton2A_SD_practice,2020.2.10,Win32,60,,,,,,,,,,,,,,,,,,,,,,1.897,5.980184159,,,,,,,,,,,,,,,,,,,,,,,,,,,,,,,,,,,,,,,,,,,,,,,,,,,,,,,,,,,,,,,,,,,,,,,,,,,,,,,,,,,,,,,,,,,
,,,,,,,6013013f04461412e683baef,23,2023-07-20_11h43.24.643,templeton2A_SD_practice,2020.2.10,Win32,60,,,,,,,,,,,,,,,,,,,,,,1.9136,5.980184159,,,,,,,,,,,,,,,,,,,,,,,,,,,,,,,,,,,,,,,,,,,,,,,,,,,,,,,,,,,,,,,,,,,,,,,,,,,,,,,,,,,,,,,,,,,
,,,,,,,6013013f04461412e683baef,23,2023-07-20_11h43.24.643,templeton2A_SD_practice,2020.2.10,Win32,60,,,,,,,,,,,,,,,,,,,,,,1.9323,5.980184159,,,,,,,,,,,,,,,,,,,,,,,,,,,,,,,,,,,,,,,,,,,,,,,,,,,,,,,,,,,,,,,,,,,,,,,,,,,,,,,,,,,,,,,,,,,
,,,,,,,6013013f04461412e683baef,23,2023-07-20_11h43.24.643,templeton2A_SD_practice,2020.2.10,Win32,60,,,,,,,,,,,,,,,,,,,,,,1.9471,5.980184159,,,,,,,,,,,,,,,,,,,,,,,,,,,,,,,,,,,,,,,,,,,,,,,,,,,,,,,,,,,,,,,,,,,,,,,,,,,,,,,,,,,,,,,,,,,
,,,,,,,6013013f04461412e683baef,23,2023-07-20_11h43.24.643,templeton2A_SD_practice,2020.2.10,Win32,60,,,,,,,,,,,,,,,,,,,,,,1.9636,5.980184159,,,,,,,,,,,,,,,,,,,,,,,,,,,,,,,,,,,,,,,,,,,,,,,,,,,,,,,,,,,,,,,,,,,,,,,,,,,,,,,,,,,,,,,,,,,
,,,,,,,6013013f04461412e683baef,23,2023-07-20_11h43.24.643,templeton2A_SD_practice,2020.2.10,Win32,60,,,,,,,,,,,,,,,,,,,,,,1.98,5.980184159,,,,,,,,,,,,,,,,,,,,,,,,,,,,,,,,,,,,,,,,,,,,,,,,,,,,,,,,,,,,,,,,,,,,,,,,,,,,,,,,,,,,,,,,,,,
,,,,,,,6013013f04461412e683baef,23,2023-07-20_11h43.24.643,templeton2A_SD_practice,2020.2.10,Win32,60,,,,,,,,,,,,,,,,,,,,,,1.9971,5.980184159,,,,,,,,,,,,,,,,,,,,,,,,,,,,,,,,,,,,,,,,,,,,,,,,,,,,,,,,,,,,,,,,,,,,,,,,,,,,,,,,,,,,,,,,,,,
,,,,,,,6013013f04461412e683baef,23,2023-07-20_11h43.24.643,templeton2A_SD_practice,2020.2.10,Win32,60,,,,,,,,,,,,,,,,,,,,,,2.0133,5.980184159,,,,,,,,,,,,,,,,,,,,,,,,,,,,,,,,,,,,,,,,,,,,,,,,,,,,,,,,,,,,,,,,,,,,,,,,,,,,,,,,,,,,,,,,,,,
,,,,,,,6013013f04461412e683baef,23,2023-07-20_11h43.24.643,templeton2A_SD_practice,2020.2.10,Win32,60,,,,,,,,,,,,,,,,,,,,,,2.0316,5.980184159,,,,,,,,,,,,,,,,,,,,,,,,,,,,,,,,,,,,,,,,,,,,,,,,,,,,,,,,,,,,,,,,,,,,,,,,,,,,,,,,,,,,,,,,,,,
,,,,,,,6013013f04461412e683baef,23,2023-07-20_11h43.24.643,templeton2A_SD_practice,2020.2.10,Win32,60,,,,,,,,,,,,,,,,,,,,,,2.0489,5.980184159,,,,,,,,,,,,,,,,,,,,,,,,,,,,,,,,,,,,,,,,,,,,,,,,,,,,,,,,,,,,,,,,,,,,,,,,,,,,,,,,,,,,,,,,,,,
,,,,,,,6013013f04461412e683baef,23,2023-07-20_11h43.24.643,templeton2A_SD_practice,2020.2.10,Win32,60,,,,,,,,,,,,,,,,,,,,,,2.0637,5.980184159,,,,,,,,,,,,,,,,,,,,,,,,,,,,,,,,,,,,,,,,,,,,,,,,,,,,,,,,,,,,,,,,,,,,,,,,,,,,,,,,,,,,,,,,,,,
,,,,,,,6013013f04461412e683baef,23,2023-07-20_11h43.24.643,templeton2A_SD_practice,2020.2.10,Win32,60,,,,,,,,,,,,,,,,,,,,,,2.0804,5.980184159,,,,,,,,,,,,,,,,,,,,,,,,,,,,,,,,,,,,,,,,,,,,,,,,,,,,,,,,,,,,,,,,,,,,,,,,,,,,,,,,,,,,,,,,,,,
,,,,,,,6013013f04461412e683baef,23,2023-07-20_11h43.24.643,templeton2A_SD_practice,2020.2.10,Win32,60,,,,,,,,,,,,,,,,,,,,,,2.0967,5.980184159,,,,,,,,,,,,,,,,,,,,,,,,,,,,,,,,,,,,,,,,,,,,,,,,,,,,,,,,,,,,,,,,,,,,,,,,,,,,,,,,,,,,,,,,,,,
,,,,,,,6013013f04461412e683baef,23,2023-07-20_11h43.24.643,templeton2A_SD_practice,2020.2.10,Win32,60,,,,,,,,,,,,,,,,,,,,,,2.1131,5.980184159,,,,,,,,,,,,,,,,,,,,,,,,,,,,,,,,,,,,,,,,,,,,,,,,,,,,,,,,,,,,,,,,,,,,,,,,,,,,,,,,,,,,,,,,,,,
,,,,,,,6013013f04461412e683baef,23,2023-07-20_11h43.24.643,templeton2A_SD_practice,2020.2.10,Win32,60,,,,,,,,,,,,,,,,,,,,,,2.13,5.980184159,,,,,,,,,,,,,,,,,,,,,,,,,,,,,,,,,,,,,,,,,,,,,,,,,,,,,,,,,,,,,,,,,,,,,,,,,,,,,,,,,,,,,,,,,,,
,,,,,,,6013013f04461412e683baef,23,2023-07-20_11h43.24.643,templeton2A_SD_practice,2020.2.10,Win32,60,,,,,,,,,,,,,,,,,,,,,,2.1468,5.980184159,,,,,,,,,,,,,,,,,,,,,,,,,,,,,,,,,,,,,,,,,,,,,,,,,,,,,,,,,,,,,,,,,,,,,,,,,,,,,,,,,,,,,,,,,,,
,,,,,,,6013013f04461412e683baef,23,2023-07-20_11h43.24.643,templeton2A_SD_practice,2020.2.10,Win32,60,,,,,,,,,,,,,,,,,,,,,,2.1635,5.980184159,,,,,,,,,,,,,,,,,,,,,,,,,,,,,,,,,,,,,,,,,,,,,,,,,,,,,,,,,,,,,,,,,,,,,,,,,,,,,,,,,,,,,,,,,,,
,,,,,,,6013013f04461412e683baef,23,2023-07-20_11h43.24.643,templeton2A_SD_practice,2020.2.10,Win32,60,,,,,,,,,,,,,,,,,,,,,,2.1798,5.980184159,,,,,,,,,,,,,,,,,,,,,,,,,,,,,,,,,,,,,,,,,,,,,,,,,,,,,,,,,,,,,,,,,,,,,,,,,,,,,,,,,,,,,,,,,,,
,,,,,,,6013013f04461412e683baef,23,2023-07-20_11h43.24.643,templeton2A_SD_practice,2020.2.10,Win32,60,,,,,,,,,,,,,,,,,,,,,,2.1967,5.980184159,,,,,,,,,,,,,,,,,,,,,,,,,,,,,,,,,,,,,,,,,,,,,,,,,,,,,,,,,,,,,,,,,,,,,,,,,,,,,,,,,,,,,,,,,,,
,,,,,,,6013013f04461412e683baef,23,2023-07-20_11h43.24.643,templeton2A_SD_practice,2020.2.10,Win32,60,,,,,,,,,,,,,,,,,,,,,,2.2134,5.980184159,,,,,,,,,,,,,,,,,,,,,,,,,,,,,,,,,,,,,,,,,,,,,,,,,,,,,,,,,,,,,,,,,,,,,,,,,,,,,,,,,,,,,,,,,,,
,,,,,,,6013013f04461412e683baef,23,2023-07-20_11h43.24.643,templeton2A_SD_practice,2020.2.10,Win32,60,,,,,,,,,,,,,,,,,,,,,,2.2301,5.980184159,,,,,,,,,,,,,,,,,,,,,,,,,,,,,,,,,,,,,,,,,,,,,,,,,,,,,,,,,,,,,,,,,,,,,,,,,,,,,,,,,,,,,,,,,,,
,,,,,,,6013013f04461412e683baef,23,2023-07-20_11h43.24.643,templeton2A_SD_practice,2020.2.10,Win32,60,,,,,,,,,,,,,,,,,,,,,,2.2462,5.980184159,,,,,,,,,,,,,,,,,,,,,,,,,,,,,,,,,,,,,,,,,,,,,,,,,,,,,,,,,,,,,,,,,,,,,,,,,,,,,,,,,,,,,,,,,,,
,,,,,,,6013013f04461412e683baef,23,2023-07-20_11h43.24.643,templeton2A_SD_practice,2020.2.10,Win32,60,,,,,,,,,,,,,,,,,,,,,,2.2635,5.980184159,,,,,,,,,,,,,,,,,,,,,,,,,,,,,,,,,,,,,,,,,,,,,,,,,,,,,,,,,,,,,,,,,,,,,,,,,,,,,,,,,,,,,,,,,,,
,,,,,,,6013013f04461412e683baef,23,2023-07-20_11h43.24.643,templeton2A_SD_practice,2020.2.10,Win32,60,,,,,,,,,,,,,,,,,,,,,,2.2799,5.980184159,,,,,,,,,,,,,,,,,,,,,,,,,,,,,,,,,,,,,,,,,,,,,,,,,,,,,,,,,,,,,,,,,,,,,,,,,,,,,,,,,,,,,,,,,,,
,,,,,,,6013013f04461412e683baef,23,2023-07-20_11h43.24.643,templeton2A_SD_practice,2020.2.10,Win32,60,,,,,,,,,,,,,,,,,,,,,,2.2967,5.980184159,,,,,,,,,,,,,,,,,,,,,,,,,,,,,,,,,,,,,,,,,,,,,,,,,,,,,,,,,,,,,,,,,,,,,,,,,,,,,,,,,,,,,,,,,,,
,,,,,,,6013013f04461412e683baef,23,2023-07-20_11h43.24.643,templeton2A_SD_practice,2020.2.10,Win32,60,,,,,,,,,,,,,,,,,,,,,,2.3128,5.980184159,,,,,,,,,,,,,,,,,,,,,,,,,,,,,,,,,,,,,,,,,,,,,,,,,,,,,,,,,,,,,,,,,,,,,,,,,,,,,,,,,,,,,,,,,,,
,,,,,,,6013013f04461412e683baef,23,2023-07-20_11h43.24.643,templeton2A_SD_practice,2020.2.10,Win32,60,,,,,,,,,,,,,,,,,,,,,,2.3296,5.980184159,,,,,,,,,,,,,,,,,,,,,,,,,,,,,,,,,,,,,,,,,,,,,,,,,,,,,,,,,,,,,,,,,,,,,,,,,,,,,,,,,,,,,,,,,,,
,,,,,,,6013013f04461412e683baef,23,2023-07-20_11h43.24.643,templeton2A_SD_practice,2020.2.10,Win32,60,,,,,,,,,,,,,,,,,,,,,,2.3463,5.980184159,,,,,,,,,,,,,,,,,,,,,,,,,,,,,,,,,,,,,,,,,,,,,,,,,,,,,,,,,,,,,,,,,,,,,,,,,,,,,,,,,,,,,,,,,,,
,,,,,,,6013013f04461412e683baef,23,2023-07-20_11h43.24.643,templeton2A_SD_practice,2020.2.10,Win32,60,,,,,,,,,,,,,,,,,,,,,,2.3632,5.980184159,,,,,,,,,,,,,,,,,,,,,,,,,,,,,,,,,,,,,,,,,,,,,,,,,,,,,,,,,,,,,,,,,,,,,,,,,,,,,,,,,,,,,,,,,,,
,,,,,,,6013013f04461412e683baef,23,2023-07-20_11h43.24.643,templeton2A_SD_practice,2020.2.10,Win32,60,,,,,,,,,,,,,,,,,,,,,,2.3794,5.980184159,,,,,,,,,,,,,,,,,,,,,,,,,,,,,,,,,,,,,,,,,,,,,,,,,,,,,,,,,,,,,,,,,,,,,,,,,,,,,,,,,,,,,,,,,,,
,,,,,,,6013013f04461412e683baef,23,2023-07-20_11h43.24.643,templeton2A_SD_practice,2020.2.10,Win32,60,,,,,,,,,,,,,,,,,,,,,,2.3964,5.980184159,,,,,,,,,,,,,,,,,,,,,,,,,,,,,,,,,,,,,,,,,,,,,,,,,,,,,,,,,,,,,,,,,,,,,,,,,,,,,,,,,,,,,,,,,,,
,,,,,,,6013013f04461412e683baef,23,2023-07-20_11h43.24.643,templeton2A_SD_practice,2020.2.10,Win32,60,,,,,,,,,,,,,,,,,,,,,,2.4167,5.980184159,,,,,,,,,,,,,,,,,,,,,,,,,,,,,,,,,,,,,,,,,,,,,,,,,,,,,,,,,,,,,,,,,,,,,,,,,,,,,,,,,,,,,,,,,,,
,,,,,,,6013013f04461412e683baef,23,2023-07-20_11h43.24.643,templeton2A_SD_practice,2020.2.10,Win32,60,,,,,,,,,,,,,,,,,,,,,,2.4299,5.980184159,,,,,,,,,,,,,,,,,,,,,,,,,,,,,,,,,,,,,,,,,,,,,,,,,,,,,,,,,,,,,,,,,,,,,,,,,,,,,,,,,,,,,,,,,,,
,,,,,,,6013013f04461412e683baef,23,2023-07-20_11h43.24.643,templeton2A_SD_practice,2020.2.10,Win32,60,,,,,,,,,,,,,,,,,,,,,,2.4462,5.980184159,,,,,,,,,,,,,,,,,,,,,,,,,,,,,,,,,,,,,,,,,,,,,,,,,,,,,,,,,,,,,,,,,,,,,,,,,,,,,,,,,,,,,,,,,,,
,,,,,,,6013013f04461412e683baef,23,2023-07-20_11h43.24.643,templeton2A_SD_practice,2020.2.10,Win32,60,,,,,,,,,,,,,,,,,,,,,,2.4632,5.980184159,,,,,,,,,,,,,,,,,,,,,,,,,,,,,,,,,,,,,,,,,,,,,,,,,,,,,,,,,,,,,,,,,,,,,,,,,,,,,,,,,,,,,,,,,,,
,,,,,,,6013013f04461412e683baef,23,2023-07-20_11h43.24.643,templeton2A_SD_practice,2020.2.10,Win32,60,,,,,,,,,,,,,,,,,,,,,,2.4796,5.980184159,,,,,,,,,,,,,,,,,,,,,,,,,,,,,,,,,,,,,,,,,,,,,,,,,,,,,,,,,,,,,,,,,,,,,,,,,,,,,,,,,,,,,,,,,,,
,,,,,,,6013013f04461412e683baef,23,2023-07-20_11h43.24.643,templeton2A_SD_practice,2020.2.10,Win32,60,,,,,,,,,,,,,,,,,,,,,,2.4964,5.980184159,,,,,,,,,,,,,,,,,,,,,,,,,,,,,,,,,,,,,,,,,,,,,,,,,,,,,,,,,,,,,,,,,,,,,,,,,,,,,,,,,,,,,,,,,,,
,,,,,,,6013013f04461412e683baef,23,2023-07-20_11h43.24.643,templeton2A_SD_practice,2020.2.10,Win32,60,,,,,,,,,,,,,,,,,,,,,,2.5131,5.980184159,,,,,,,,,,,,,,,,,,,,,,,,,,,,,,,,,,,,,,,,,,,,,,,,,,,,,,,,,,,,,,,,,,,,,,,,,,,,,,,,,,,,,,,,,,,
,,,,,,,6013013f04461412e683baef,23,2023-07-20_11h43.24.643,templeton2A_SD_practice,2020.2.10,Win32,60,,,,,,,,,,,,,,,,,,,,,,2.5297,5.980184159,,,,,,,,,,,,,,,,,,,,,,,,,,,,,,,,,,,,,,,,,,,,,,,,,,,,,,,,,,,,,,,,,,,,,,,,,,,,,,,,,,,,,,,,,,,
,,,,,,,6013013f04461412e683baef,23,2023-07-20_11h43.24.643,templeton2A_SD_practice,2020.2.10,Win32,60,,,,,,,,,,,,,,,,,,,,,,2.5464,5.980184159,,,,,,,,,,,,,,,,,,,,,,,,,,,,,,,,,,,,,,,,,,,,,,,,,,,,,,,,,,,,,,,,,,,,,,,,,,,,,,,,,,,,,,,,,,,
,,,,,,,6013013f04461412e683baef,23,2023-07-20_11h43.24.643,templeton2A_SD_practice,2020.2.10,Win32,60,,,,,,,,,,,,,,,,,,,,,,2.5631,5.980184159,,,,,,,,,,,,,,,,,,,,,,,,,,,,,,,,,,,,,,,,,,,,,,,,,,,,,,,,,,,,,,,,,,,,,,,,,,,,,,,,,,,,,,,,,,,
,,,,,,,6013013f04461412e683baef,23,2023-07-20_11h43.24.643,templeton2A_SD_practice,2020.2.10,Win32,60,,,,,,,,,,,,,,,,,,,,,,2.5794,5.980184159,,,,,,,,,,,,,,,,,,,,,,,,,,,,,,,,,,,,,,,,,,,,,,,,,,,,,,,,,,,,,,,,,,,,,,,,,,,,,,,,,,,,,,,,,,,
,,,,,,,6013013f04461412e683baef,23,2023-07-20_11h43.24.643,templeton2A_SD_practice,2020.2.10,Win32,60,,,,,,,,,,,,,,,,,,,,,,2.5961,5.980184159,,,,,,,,,,,,,,,,,,,,,,,,,,,,,,,,,,,,,,,,,,,,,,,,,,,,,,,,,,,,,,,,,,,,,,,,,,,,,,,,,,,,,,,,,,,
,,,,,,,6013013f04461412e683baef,23,2023-07-20_11h43.24.643,templeton2A_SD_practice,2020.2.10,Win32,60,,,,,,,,,,,,,,,,,,,,,,2.6128,5.980184159,,,,,,,,,,,,,,,,,,,,,,,,,,,,,,,,,,,,,,,,,,,,,,,,,,,,,,,,,,,,,,,,,,,,,,,,,,,,,,,,,,,,,,,,,,,
,,,,,,,6013013f04461412e683baef,23,2023-07-20_11h43.24.643,templeton2A_SD_practice,2020.2.10,Win32,60,,,,,,,,,,,,,,,,,,,,,,2.6297,5.980184159,,,,,,,,,,,,,,,,,,,,,,,,,,,,,,,,,,,,,,,,,,,,,,,,,,,,,,,,,,,,,,,,,,,,,,,,,,,,,,,,,,,,,,,,,,,
,,,,,,,6013013f04461412e683baef,23,2023-07-20_11h43.24.643,templeton2A_SD_practice,2020.2.10,Win32,60,,,,,,,,,,,,,,,,,,,,,,2.6463,5.980184159,,,,,,,,,,,,,,,,,,,,,,,,,,,,,,,,,,,,,,,,,,,,,,,,,,,,,,,,,,,,,,,,,,,,,,,,,,,,,,,,,,,,,,,,,,,
,,,,,,,6013013f04461412e683baef,23,2023-07-20_11h43.24.643,templeton2A_SD_practice,2020.2.10,Win32,60,,,,,,,,,,,,,,,,,,,,,,2.6629,5.980184159,,,,,,,,,,,,,,,,,,,,,,,,,,,,,,,,,,,,,,,,,,,,,,,,,,,,,,,,,,,,,,,,,,,,,,,,,,,,,,,,,,,,,,,,,,,
,,,,,,,6013013f04461412e683baef,23,2023-07-20_11h43.24.643,templeton2A_SD_practice,2020.2.10,Win32,60,,,,,,,,,,,,,,,,,,,,,,2.6793,5.980184159,,,,,,,,,,,,,,,,,,,,,,,,,,,,,,,,,,,,,,,,,,,,,,,,,,,,,,,,,,,,,,,,,,,,,,,,,,,,,,,,,,,,,,,,,,,
,,,,,,,6013013f04461412e683baef,23,2023-07-20_11h43.24.643,templeton2A_SD_practice,2020.2.10,Win32,60,,,,,,,,,,,,,,,,,,,,,,2.6965,5.980184159,,,,,,,,,,,,,,,,,,,,,,,,,,,,,,,,,,,,,,,,,,,,,,,,,,,,,,,,,,,,,,,,,,,,,,,,,,,,,,,,,,,,,,,,,,,
,,,,,,,6013013f04461412e683baef,23,2023-07-20_11h43.24.643,templeton2A_SD_practice,2020.2.10,Win32,60,,,,,,,,,,,,,,,,,,,,,,2.7128,5.980184159,,,,,,,,,,,,,,,,,,,,,,,,,,,,,,,,,,,,,,,,,,,,,,,,,,,,,,,,,,,,,,,,,,,,,,,,,,,,,,,,,,,,,,,,,,,
,,,,,,,6013013f04461412e683baef,23,2023-07-20_11h43.24.643,templeton2A_SD_practice,2020.2.10,Win32,60,,,,,,,,,,,,,,,,,,,,,,2.7296,5.980184159,,,,,,,,,,,,,,,,,,,,,,,,,,,,,,,,,,,,,,,,,,,,,,,,,,,,,,,,,,,,,,,,,,,,,,,,,,,,,,,,,,,,,,,,,,,
,,,,,,,6013013f04461412e683baef,23,2023-07-20_11h43.24.643,templeton2A_SD_practice,2020.2.10,Win32,60,,,,,,,,,,,,,,,,,,,,,,2.7463,5.980184159,,,,,,,,,,,,,,,,,,,,,,,,,,,,,,,,,,,,,,,,,,,,,,,,,,,,,,,,,,,,,,,,,,,,,,,,,,,,,,,,,,,,,,,,,,,
,,,,,,,6013013f04461412e683baef,23,2023-07-20_11h43.24.643,templeton2A_SD_practice,2020.2.10,Win32,60,,,,,,,,,,,,,,,,,,,,,,2.7631,5.980184159,,,,,,,,,,,,,,,,,,,,,,,,,,,,,,,,,,,,,,,,,,,,,,,,,,,,,,,,,,,,,,,,,,,,,,,,,,,,,,,,,,,,,,,,,,,
,,,,,,,6013013f04461412e683baef,23,2023-07-20_11h43.24.643,templeton2A_SD_practice,2020.2.10,Win32,60,,,,,,,,,,,,,,,,,,,,,,2.7793,5.980184159,,,,,,,,,,,,,,,,,,,,,,,,,,,,,,,,,,,,,,,,,,,,,,,,,,,,,,,,,,,,,,,,,,,,,,,,,,,,,,,,,,,,,,,,,,,
,,,,,,,6013013f04461412e683baef,23,2023-07-20_11h43.24.643,templeton2A_SD_practice,2020.2.10,Win32,60,,,,,,,,,,,,,,,,,,,,,,2.7962,5.980184159,,,,,,,,,,,,,,,,,,,,,,,,,,,,,,,,,,,,,,,,,,,,,,,,,,,,,,,,,,,,,,,,,,,,,,,,,,,,,,,,,,,,,,,,,,,
,,,,,,,6013013f04461412e683baef,23,2023-07-20_11h43.24.643,templeton2A_SD_practice,2020.2.10,Win32,60,,,,,,,,,,,,,,,,,,,,,,2.8129,5.980184159,,,,,,,,,,,,,,,,,,,,,,,,,,,,,,,,,,,,,,,,,,,,,,,,,,,,,,,,,,,,,,,,,,,,,,,,,,,,,,,,,,,,,,,,,,,
,,,,,,,6013013f04461412e683baef,23,2023-07-20_11h43.24.643,templeton2A_SD_practice,2020.2.10,Win32,60,,,,,,,,,,,,,,,,,,,,,,2.8292,5.980184159,,,,,,,,,,,,,,,,,,,,,,,,,,,,,,,,,,,,,,,,,,,,,,,,,,,,,,,,,,,,,,,,,,,,,,,,,,,,,,,,,,,,,,,,,,,
,,,,,,,6013013f04461412e683baef,23,2023-07-20_11h43.24.643,templeton2A_SD_practice,2020.2.10,Win32,60,,,,,,,,,,,,,,,,,,,,,,2.8459,5.980184159,,,,,,,,,,,,,,,,,,,,,,,,,,,,,,,,,,,,,,,,,,,,,,,,,,,,,,,,,,,,,,,,,,,,,,,,,,,,,,,,,,,,,,,,,,,
,,,,,,,6013013f04461412e683baef,23,2023-07-20_11h43.24.643,templeton2A_SD_practice,2020.2.10,Win32,60,,,,,,,,,,,,,,,,,,,,,,2.8622,5.980184159,,,,,,,,,,,,,,,,,,,,,,,,,,,,,,,,,,,,,,,,,,,,,,,,,,,,,,,,,,,,,,,,,,,,,,,,,,,,,,,,,,,,,,,,,,,
,,,,,,,6013013f04461412e683baef,23,2023-07-20_11h43.24.643,templeton2A_SD_practice,2020.2.10,Win32,60,,,,,,,,,,,,,,,,,,,,,,2.879,5.980184159,,,,,,,,,,,,,,,,,,,,,,,,,,,,,,,,,,,,,,,,,,,,,,,,,,,,,,,,,,,,,,,,,,,,,,,,,,,,,,,,,,,,,,,,,,,
,,,,,,,6013013f04461412e683baef,23,2023-07-20_11h43.24.643,templeton2A_SD_practice,2020.2.10,Win32,60,,,,,,,,,,,,,,,,,,,,,,2.8955,5.980184159,,,,,,,,,,,,,,,,,,,,,,,,,,,,,,,,,,,,,,,,,,,,,,,,,,,,,,,,,,,,,,,,,,,,,,,,,,,,,,,,,,,,,,,,,,,
,,,,,,,6013013f04461412e683baef,23,2023-07-20_11h43.24.643,templeton2A_SD_practice,2020.2.10,Win32,60,,,,,,,,,,,,,,,,,,,,,,2.9122,5.980184159,,,,,,,,,,,,,,,,,,,,,,,,,,,,,,,,,,,,,,,,,,,,,,,,,,,,,,,,,,,,,,,,,,,,,,,,,,,,,,,,,,,,,,,,,,,
,,,,,,,6013013f04461412e683baef,23,2023-07-20_11h43.24.643,templeton2A_SD_practice,2020.2.10,Win32,60,,,,,,,,,,,,,,,,,,,,,,2.929,5.980184159,,,,,,,,,,,,,,,,,,,,,,,,,,,,,,,,,,,,,,,,,,,,,,,,,,,,,,,,,,,,,,,,,,,,,,,,,,,,,,,,,,,,,,,,,,,
,,,,,,,6013013f04461412e683baef,23,2023-07-20_11h43.24.643,templeton2A_SD_practice,2020.2.10,Win32,60,,,,,,,,,,,,,,,,,,,,,,2.9458,5.980184159,,,,,,,,,,,,,,,,,,,,,,,,,,,,,,,,,,,,,,,,,,,,,,,,,,,,,,,,,,,,,,,,,,,,,,,,,,,,,,,,,,,,,,,,,,,
,,,,,,,6013013f04461412e683baef,23,2023-07-20_11h43.24.643,templeton2A_SD_practice,2020.2.10,Win32,60,,,,,,,,,,,,,,,,,,,,,,2.9626,5.980184159,,,,,,,,,,,,,,,,,,,,,,,,,,,,,,,,,,,,,,,,,,,,,,,,,,,,,,,,,,,,,,,,,,,,,,,,,,,,,,,,,,,,,,,,,,,
,,,,,,,6013013f04461412e683baef,23,2023-07-20_11h43.24.643,templeton2A_SD_practice,2020.2.10,Win32,60,,,,,,,,,,,,,,,,,,,,,,2.9793,5.980184159,,,,,,,,,,,,,,,,,,,,,,,,,,,,,,,,,,,,,,,,,,,,,,,,,,,,,,,,,,,,,,,,,,,,,,,,,,,,,,,,,,,,,,,,,,,
,,,,,,,6013013f04461412e683baef,23,2023-07-20_11h43.24.643,templeton2A_SD_practice,2020.2.10,Win32,60,,,,,,,,,,,,,,,,,,,,,,2.996,5.980184159,,,,,,,,,,,,,,,,,,,,,,,,,,,,,,,,,,,,,,,,,,,,,,,,,,,,,,,,,,,,,,,,,,,,,,,,,,,,,,,,,,,,,,,,,,,
,,,,,,,6013013f04461412e683baef,23,2023-07-20_11h43.24.643,templeton2A_SD_practice,2020.2.10,Win32,60,,,,,,,,,,,,,,,,,,,,,,3.0127,5.980184159,,,,,,,,,,,,,,,,,,,,,,,,,,,,,,,,,,,,,,,,,,,,,,,,,,,,,,,,,,,,,,,,,,,,,,,,,,,,,,,,,,,,,,,,,,,
,,,,,,,6013013f04461412e683baef,23,2023-07-20_11h43.24.643,templeton2A_SD_practice,2020.2.10,Win32,60,,,,,,,,,,,,,,,,,,,,,,3.0293,5.980184159,,,,,,,,,,,,,,,,,,,,,,,,,,,,,,,,,,,,,,,,,,,,,,,,,,,,,,,,,,,,,,,,,,,,,,,,,,,,,,,,,,,,,,,,,,,
,,,,,,,6013013f04461412e683baef,23,2023-07-20_11h43.24.643,templeton2A_SD_practice,2020.2.10,Win32,60,,,,,,,,,,,,,,,,,,,,,,3.0456,5.980184159,,,,,,,,,,,,,,,,,,,,,,,,,,,,,,,,,,,,,,,,,,,,,,,,,,,,,,,,,,,,,,,,,,,,,,,,,,,,,,,,,,,,,,,,,,,
,,,,,,,6013013f04461412e683baef,23,2023-07-20_11h43.24.643,templeton2A_SD_practice,2020.2.10,Win32,60,,,,,,,,,,,,,,,,,,,,,,3.0623,5.980184159,,,,,,,,,,,,,,,,,,,,,,,,,,,,,,,,,,,,,,,,,,,,,,,,,,,,,,,,,,,,,,,,,,,,,,,,,,,,,,,,,,,,,,,,,,,
,,,,,,,6013013f04461412e683baef,23,2023-07-20_11h43.24.643,templeton2A_SD_practice,2020.2.10,Win32,60,,,,,,,,,,,,,,,,,,,,,,3.0791,5.980184159,,,,,,,,,,,,,,,,,,,,,,,,,,,,,,,,,,,,,,,,,,,,,,,,,,,,,,,,,,,,,,,,,,,,,,,,,,,,,,,,,,,,,,,,,,,
,,,,,,,6013013f04461412e683baef,23,2023-07-20_11h43.24.643,templeton2A_SD_practice,2020.2.10,Win32,60,,,,,,,,,,,,,,,,,,,,,,3.0958,5.980184159,,,,,,,,,,,,,,,,,,,,,,,,,,,,,,,,,,,,,,,,,,,,,,,,,,,,,,,,,,,,,,,,,,,,,,,,,,,,,,,,,,,,,,,,,,,
,,,,,,,6013013f04461412e683baef,23,2023-07-20_11h43.24.643,templeton2A_SD_practice,2020.2.10,Win32,60,,,,,,,,,,,,,,,,,,,,,,3.1126,5.980184159,,,,,,,,,,,,,,,,,,,,,,,,,,,,,,,,,,,,,,,,,,,,,,,,,,,,,,,,,,,,,,,,,,,,,,,,,,,,,,,,,,,,,,,,,,,
,,,,,,,6013013f04461412e683baef,23,2023-07-20_11h43.24.643,templeton2A_SD_practice,2020.2.10,Win32,60,,,,,,,,,,,,,,,,,,,,,,3.129,5.980184159,,,,,,,,,,,,,,,,,,,,,,,,,,,,,,,,,,,,,,,,,,,,,,,,,,,,,,,,,,,,,,,,,,,,,,,,,,,,,,,,,,,,,,,,,,,
,,,,,,,6013013f04461412e683baef,23,2023-07-20_11h43.24.643,templeton2A_SD_practice,2020.2.10,Win32,60,,,,,,,,,,,,,,,,,,,,,,3.1459,5.980184159,,,,,,,,,,,,,,,,,,,,,,,,,,,,,,,,,,,,,,,,,,,,,,,,,,,,,,,,,,,,,,,,,,,,,,,,,,,,,,,,,,,,,,,,,,,
,,,,,,,6013013f04461412e683baef,23,2023-07-20_11h43.24.643,templeton2A_SD_practice,2020.2.10,Win32,60,,,,,,,,,,,,,,,,,,,,,,3.1623,5.980184159,,,,,,,,,,,,,,,,,,,,,,,,,,,,,,,,,,,,,,,,,,,,,,,,,,,,,,,,,,,,,,,,,,,,,,,,,,,,,,,,,,,,,,,,,,,
,,,,,,,6013013f04461412e683baef,23,2023-07-20_11h43.24.643,templeton2A_SD_practice,2020.2.10,Win32,60,,,,,,,,,,,,,,,,,,,,,,3.1791,5.980184159,,,,,,,,,,,,,,,,,,,,,,,,,,,,,,,,,,,,,,,,,,,,,,,,,,,,,,,,,,,,,,,,,,,,,,,,,,,,,,,,,,,,,,,,,,,
,,,,,,,6013013f04461412e683baef,23,2023-07-20_11h43.24.643,templeton2A_SD_practice,2020.2.10,Win32,60,,,,,,,,,,,,,,,,,,,,,,3.1956,5.980184159,,,,,,,,,,,,,,,,,,,,,,,,,,,,,,,,,,,,,,,,,,,,,,,,,,,,,,,,,,,,,,,,,,,,,,,,,,,,,,,,,,,,,,,,,,,
,,,,,,,6013013f04461412e683baef,23,2023-07-20_11h43.24.643,templeton2A_SD_practice,2020.2.10,Win32,60,,,,,,,,,,,,,,,,,,,,,,3.2124,5.980184159,,,,,,,,,,,,,,,,,,,,,,,,,,,,,,,,,,,,,,,,,,,,,,,,,,,,,,,,,,,,,,,,,,,,,,,,,,,,,,,,,,,,,,,,,,,
,,,,,,,6013013f04461412e683baef,23,2023-07-20_11h43.24.643,templeton2A_SD_practice,2020.2.10,Win32,60,,,,,,,,,,,,,,,,,,,,,,3.2292,5.980184159,,,,,,,,,,,,,,,,,,,,,,,,,,,,,,,,,,,,,,,,,,,,,,,,,,,,,,,,,,,,,,,,,,,,,,,,,,,,,,,,,,,,,,,,,,,
,,,,,,,6013013f04461412e683baef,23,2023-07-20_11h43.24.643,templeton2A_SD_practice,2020.2.10,Win32,60,,,,,,,,,,,,,,,,,,,,,,3.2458,5.980184159,,,,,,,,,,,,,,,,,,,,,,,,,,,,,,,,,,,,,,,,,,,,,,,,,,,,,,,,,,,,,,,,,,,,,,,,,,,,,,,,,,,,,,,,,,,
,,,,,,,6013013f04461412e683baef,23,2023-07-20_11h43.24.643,templeton2A_SD_practice,2020.2.10,Win32,60,,,,,,,,,,,,,,,,,,,,,,3.2619,5.980184159,,,,,,,,,,,,,,,,,,,,,,,,,,,,,,,,,,,,,,,,,,,,,,,,,,,,,,,,,,,,,,,,,,,,,,,,,,,,,,,,,,,,,,,,,,,
,,,,,,,6013013f04461412e683baef,23,2023-07-20_11h43.24.643,templeton2A_SD_practice,2020.2.10,Win32,60,,,,,,,,,,,,,,,,,,,,,,3.2787,5.980184159,,,,,,,,,,,,,,,,,,,,,,,,,,,,,,,,,,,,,,,,,,,,,,,,,,,,,,,,,,,,,,,,,,,,,,,,,,,,,,,,,,,,,,,,,,,
,,,,,,,6013013f04461412e683baef,23,2023-07-20_11h43.24.643,templeton2A_SD_practice,2020.2.10,Win32,60,,,,,,,,,,,,,,,,,,,,,,3.2958,5.980184159,,,,,,,,,,,,,,,,,,,,,,,,,,,,,,,,,,,,,,,,,,,,,,,,,,,,,,,,,,,,,,,,,,,,,,,,,,,,,,,,,,,,,,,,,,,
,,,,,,,6013013f04461412e683baef,23,2023-07-20_11h43.24.643,templeton2A_SD_practice,2020.2.10,Win32,60,,,,,,,,,,,,,,,,,,,,,,3.3155,5.980184159,,,,,,,,,,,,,,,,,,,,,,,,,,,,,,,,,,,,,,,,,,,,,,,,,,,,,,,,,,,,,,,,,,,,,,,,,,,,,,,,,,,,,,,,,,,
,,,,,,,6013013f04461412e683baef,23,2023-07-20_11h43.24.643,templeton2A_SD_practice,2020.2.10,Win32,60,,,,,,,,,,,,,,,,,,,,,,3.3286,5.980184159,,,,,,,,,,,,,,,,,,,,,,,,,,,,,,,,,,,,,,,,,,,,,,,,,,,,,,,,,,,,,,,,,,,,,,,,,,,,,,,,,,,,,,,,,,,
,,,,,,,6013013f04461412e683baef,23,2023-07-20_11h43.24.643,templeton2A_SD_practice,2020.2.10,Win32,60,,,,,,,,,,,,,,,,,,,,,,3.3454,5.980184159,,,,,,,,,,,,,,,,,,,,,,,,,,,,,,,,,,,,,,,,,,,,,,,,,,,,,,,,,,,,,,,,,,,,,,,,,,,,,,,,,,,,,,,,,,,
,,,,,,,6013013f04461412e683baef,23,2023-07-20_11h43.24.643,templeton2A_SD_practice,2020.2.10,Win32,60,,,,,,,,,,,,,,,,,,,,,,3.3625,5.980184159,,,,,,,,,,,,,,,,,,,,,,,,,,,,,,,,,,,,,,,,,,,,,,,,,,,,,,,,,,,,,,,,,,,,,,,,,,,,,,,,,,,,,,,,,,,
,,,,,,,6013013f04461412e683baef,23,2023-07-20_11h43.24.643,templeton2A_SD_practice,2020.2.10,Win32,60,,,,,,,,,,,,,,,,,,,,,,3.3788,5.980184159,,,,,,,,,,,,,,,,,,,,,,,,,,,,,,,,,,,,,,,,,,,,,,,,,,,,,,,,,,,,,,,,,,,,,,,,,,,,,,,,,,,,,,,,,,,
,,,,,,,6013013f04461412e683baef,23,2023-07-20_11h43.24.643,templeton2A_SD_practice,2020.2.10,Win32,60,,,,,,,,,,,,,,,,,,,,,,3.3954,5.980184159,,,,,,,,,,,,,,,,,,,,,,,,,,,,,,,,,,,,,,,,,,,,,,,,,,,,,,,,,,,,,,,,,,,,,,,,,,,,,,,,,,,,,,,,,,,
,,,,,,,6013013f04461412e683baef,23,2023-07-20_11h43.24.643,templeton2A_SD_practice,2020.2.10,Win32,60,,,,,,,,,,,,,,,,,,,,,,3.4123,5.980184159,,,,,,,,,,,,,,,,,,,,,,,,,,,,,,,,,,,,,,,,,,,,,,,,,,,,,,,,,,,,,,,,,,,,,,,,,,,,,,,,,,,,,,,,,,,
,,,,,,,6013013f04461412e683baef,23,2023-07-20_11h43.24.643,templeton2A_SD_practice,2020.2.10,Win32,60,,,,,,,,,,,,,,,,,,,,,,3.4291,5.980184159,,,,,,,,,,,,,,,,,,,,,,,,,,,,,,,,,,,,,,,,,,,,,,,,,,,,,,,,,,,,,,,,,,,,,,,,,,,,,,,,,,,,,,,,,,,
,,,,,,,6013013f04461412e683baef,23,2023-07-20_11h43.24.643,templeton2A_SD_practice,2020.2.10,Win32,60,,,,,,,,,,,,,,,,,,,,,,3.4456,5.980184159,,,,,,,,,,,,,,,,,,,,,,,,,,,,,,,,,,,,,,,,,,,,,,,,,,,,,,,,,,,,,,,,,,,,,,,,,,,,,,,,,,,,,,,,,,,
,,,,,,,6013013f04461412e683baef,23,2023-07-20_11h43.24.643,templeton2A_SD_practice,2020.2.10,Win32,60,,,,,,,,,,,,,,,,,,,,,,3.4623,5.980184159,,,,,,,,,,,,,,,,,,,,,,,,,,,,,,,,,,,,,,,,,,,,,,,,,,,,,,,,,,,,,,,,,,,,,,,,,,,,,,,,,,,,,,,,,,,
,,,,,,,6013013f04461412e683baef,23,2023-07-20_11h43.24.643,templeton2A_SD_practice,2020.2.10,Win32,60,,,,,,,,,,,,,,,,,,,,,,3.479,5.980184159,,,,,,,,,,,,,,,,,,,,,,,,,,,,,,,,,,,,,,,,,,,,,,,,,,,,,,,,,,,,,,,,,,,,,,,,,,,,,,,,,,,,,,,,,,,
,,,,,,,6013013f04461412e683baef,23,2023-07-20_11h43.24.643,templeton2A_SD_practice,2020.2.10,Win32,60,,,,,,,,,,,,,,,,,,,,,,3.4956,5.980184159,,,,,,,,,,,,,,,,,,,,,,,,,,,,,,,,,,,,,,,,,,,,,,,,,,,,,,,,,,,,,,,,,,,,,,,,,,,,,,,,,,,,,,,,,,,
,,,,,,,6013013f04461412e683baef,23,2023-07-20_11h43.24.643,templeton2A_SD_practice,2020.2.10,Win32,60,,,,,,,,,,,,,,,,,,,,,,3.5119,5.980184159,,,,,,,,,,,,,,,,,,,,,,,,,,,,,,,,,,,,,,,,,,,,,,,,,,,,,,,,,,,,,,,,,,,,,,,,,,,,,,,,,,,,,,,,,,,
,,,,,,,6013013f04461412e683baef,23,2023-07-20_11h43.24.643,templeton2A_SD_practice,2020.2.10,Win32,60,,,,,,,,,,,,,,,,,,,,,,3.529,5.980184159,,,,,,,,,,,,,,,,,,,,,,,,,,,,,,,,,,,,,,,,,,,,,,,,,,,,,,,,,,,,,,,,,,,,,,,,,,,,,,,,,,,,,,,,,,,
,,,,,,,6013013f04461412e683baef,23,2023-07-20_11h43.24.643,templeton2A_SD_practice,2020.2.10,Win32,60,,,,,,,,,,,,,,,,,,,,,,3.545,5.980184159,,,,,,,,,,,,,,,,,,,,,,,,,,,,,,,,,,,,,,,,,,,,,,,,,,,,,,,,,,,,,,,,,,,,,,,,,,,,,,,,,,,,,,,,,,,
,,,,,,,6013013f04461412e683baef,23,2023-07-20_11h43.24.643,templeton2A_SD_practice,2020.2.10,Win32,60,,,,,,,,,,,,,,,,,,,,,,3.5616,5.980184159,,,,,,,,,,,,,,,,,,,,,,,,,,,,,,,,,,,,,,,,,,,,,,,,,,,,,,,,,,,,,,,,,,,,,,,,,,,,,,,,,,,,,,,,,,,
,,,,,,,6013013f04461412e683baef,23,2023-07-20_11h43.24.643,templeton2A_SD_practice,2020.2.10,Win32,60,,,,,,,,,,,,,,,,,,,,,,3.5783,5.980184159,,,,,,,,,,,,,,,,,,,,,,,,,,,,,,,,,,,,,,,,,,,,,,,,,,,,,,,,,,,,,,,,,,,,,,,,,,,,,,,,,,,,,,,,,,,
,,,,,,,6013013f04461412e683baef,23,2023-07-20_11h43.24.643,templeton2A_SD_practice,2020.2.10,Win32,60,,,,,,,,,,,,,,,,,,,,,,3.5949,5.980184159,,,,,,,,,,,,,,,,,,,,,,,,,,,,,,,,,,,,,,,,,,,,,,,,,,,,,,,,,,,,,,,,,,,,,,,,,,,,,,,,,,,,,,,,,,,
,,,,,,,6013013f04461412e683baef,23,2023-07-20_11h43.24.643,templeton2A_SD_practice,2020.2.10,Win32,60,,,,,,,,,,,,,,,,,,,,,,3.6116,5.980184159,,,,,,,,,,,,,,,,,,,,,,,,,,,,,,,,,,,,,,,,,,,,,,,,,,,,,,,,,,,,,,,,,,,,,,,,,,,,,,,,,,,,,,,,,,,
,,,,,,,6013013f04461412e683baef,23,2023-07-20_11h43.24.643,templeton2A_SD_practice,2020.2.10,Win32,60,,,,,,,,,,,,,,,,,,,,,,3.6282,5.980184159,,,,,,,,,,,,,,,,,,,,,,,,,,,,,,,,,,,,,,,,,,,,,,,,,,,,,,,,,,,,,,,,,,,,,,,,,,,,,,,,,,,,,,,,,,,
,,,,,,,6013013f04461412e683baef,23,2023-07-20_11h43.24.643,templeton2A_SD_practice,2020.2.10,Win32,60,,,,,,,,,,,,,,,,,,,,,,3.6449,5.980184159,,,,,,,,,,,,,,,,,,,,,,,,,,,,,,,,,,,,,,,,,,,,,,,,,,,,,,,,,,,,,,,,,,,,,,,,,,,,,,,,,,,,,,,,,,,
,,,,,,,6013013f04461412e683baef,23,2023-07-20_11h43.24.643,templeton2A_SD_practice,2020.2.10,Win32,60,,,,,,,,,,,,,,,,,,,,,,3.6616,5.980184159,,,,,,,,,,,,,,,,,,,,,,,,,,,,,,,,,,,,,,,,,,,,,,,,,,,,,,,,,,,,,,,,,,,,,,,,,,,,,,,,,,,,,,,,,,,
,,,,,,,6013013f04461412e683baef,23,2023-07-20_11h43.24.643,templeton2A_SD_practice,2020.2.10,Win32,60,,,,,,,,,,,,,,,,,,,,,,3.6781,5.980184159,,,,,,,,,,,,,,,,,,,,,,,,,,,,,,,,,,,,,,,,,,,,,,,,,,,,,,,,,,,,,,,,,,,,,,,,,,,,,,,,,,,,,,,,,,,
,,,,,,,6013013f04461412e683baef,23,2023-07-20_11h43.24.643,templeton2A_SD_practice,2020.2.10,Win32,60,,,,,,,,,,,,,,,,,,,,,,3.6947,5.980184159,,,,,,,,,,,,,,,,,,,,,,,,,,,,,,,,,,,,,,,,,,,,,,,,,,,,,,,,,,,,,,,,,,,,,,,,,,,,,,,,,,,,,,,,,,,
,,,,,,,6013013f04461412e683baef,23,2023-07-20_11h43.24.643,templeton2A_SD_practice,2020.2.10,Win32,60,,,,,,,,,,,,,,,,,,,,,,3.7116,5.980184159,,,,,,,,,,,,,,,,,,,,,,,,,,,,,,,,,,,,,,,,,,,,,,,,,,,,,,,,,,,,,,,,,,,,,,,,,,,,,,,,,,,,,,,,,,,
,,,,,,,6013013f04461412e683baef,23,2023-07-20_11h43.24.643,templeton2A_SD_practice,2020.2.10,Win32,60,,,,,,,,,,,,,,,,,,,,,,3.7282,5.980184159,,,,,,,,,,,,,,,,,,,,,,,,,,,,,,,,,,,,,,,,,,,,,,,,,,,,,,,,,,,,,,,,,,,,,,,,,,,,,,,,,,,,,,,,,,,
,,,,,,,6013013f04461412e683baef,23,2023-07-20_11h43.24.643,templeton2A_SD_practice,2020.2.10,Win32,60,,,,,,,,,,,,,,,,,,,,,,3.7448,5.980184159,,,,,,,,,,,,,,,,,,,,,,,,,,,,,,,,,,,,,,,,,,,,,,,,,,,,,,,,,,,,,,,,,,,,,,,,,,,,,,,,,,,,,,,,,,,
,,,,,,,6013013f04461412e683baef,23,2023-07-20_11h43.24.643,templeton2A_SD_practice,2020.2.10,Win32,60,,,,,,,,,,,,,,,,,,,,,,3.7614,5.980184159,,,,,,,,,,,,,,,,,,,,,,,,,,,,,,,,,,,,,,,,,,,,,,,,,,,,,,,,,,,,,,,,,,,,,,,,,,,,,,,,,,,,,,,,,,,
,,,,,,,6013013f04461412e683baef,23,2023-07-20_11h43.24.643,templeton2A_SD_practice,2020.2.10,Win32,60,,,,,,,,,,,,,,,,,,,,,,3.778,5.980184159,,,,,,,,,,,,,,,,,,,,,,,,,,,,,,,,,,,,,,,,,,,,,,,,,,,,,,,,,,,,,,,,,,,,,,,,,,,,,,,,,,,,,,,,,,,
,,,,,,,6013013f04461412e683baef,23,2023-07-20_11h43.24.643,templeton2A_SD_practice,2020.2.10,Win32,60,,,,,,,,,,,,,,,,,,,,,,3.7948,5.980184159,,,,,,,,,,,,,,,,,,,,,,,,,,,,,,,,,,,,,,,,,,,,,,,,,,,,,,,,,,,,,,,,,,,,,,,,,,,,,,,,,,,,,,,,,,,
,,,,,,,6013013f04461412e683baef,23,2023-07-20_11h43.24.643,templeton2A_SD_practice,2020.2.10,Win32,60,,,,,,,,,,,,,,,,,,,,,,3.8114,5.980184159,,,,,,,,,,,,,,,,,,,,,,,,,,,,,,,,,,,,,,,,,,,,,,,,,,,,,,,,,,,,,,,,,,,,,,,,,,,,,,,,,,,,,,,,,,,
,,,,,,,6013013f04461412e683baef,23,2023-07-20_11h43.24.643,templeton2A_SD_practice,2020.2.10,Win32,60,,,,,,,,,,,,,,,,,,,,,,3.828,5.980184159,,,,,,,,,,,,,,,,,,,,,,,,,,,,,,,,,,,,,,,,,,,,,,,,,,,,,,,,,,,,,,,,,,,,,,,,,,,,,,,,,,,,,,,,,,,
,,,,,,,6013013f04461412e683baef,23,2023-07-20_11h43.24.643,templeton2A_SD_practice,2020.2.10,Win32,60,,,,,,,,,,,,,,,,,,,,,,3.8447,5.980184159,,,,,,,,,,,,,,,,,,,,,,,,,,,,,,,,,,,,,,,,,,,,,,,,,,,,,,,,,,,,,,,,,,,,,,,,,,,,,,,,,,,,,,,,,,,
,,,,,,,6013013f04461412e683baef,23,2023-07-20_11h43.24.643,templeton2A_SD_practice,2020.2.10,Win32,60,,,,,,,,,,,,,,,,,,,,,,3.8613,5.980184159,,,,,,,,,,,,,,,,,,,,,,,,,,,,,,,,,,,,,,,,,,,,,,,,,,,,,,,,,,,,,,,,,,,,,,,,,,,,,,,,,,,,,,,,,,,
,,,,,,,6013013f04461412e683baef,23,2023-07-20_11h43.24.643,templeton2A_SD_practice,2020.2.10,Win32,60,,,,,,,,,,,,,,,,,,,,,,3.878,5.980184159,,,,,,,,,,,,,,,,,,,,,,,,,,,,,,,,,,,,,,,,,,,,,,,,,,,,,,,,,,,,,,,,,,,,,,,,,,,,,,,,,,,,,,,,,,,
,,,,,,,6013013f04461412e683baef,23,2023-07-20_11h43.24.643,templeton2A_SD_practice,2020.2.10,Win32,60,,,,,,,,,,,,,,,,,,,,,,3.8946,5.980184159,,,,,,,,,,,,,,,,,,,,,,,,,,,,,,,,,,,,,,,,,,,,,,,,,,,,,,,,,,,,,,,,,,,,,,,,,,,,,,,,,,,,,,,,,,,
,,,,,,,6013013f04461412e683baef,23,2023-07-20_11h43.24.643,templeton2A_SD_practice,2020.2.10,Win32,60,,,,,,,,,,,,,,,,,,,,,,3.9113,5.980184159,,,,,,,,,,,,,,,,,,,,,,,,,,,,,,,,,,,,,,,,,,,,,,,,,,,,,,,,,,,,,,,,,,,,,,,,,,,,,,,,,,,,,,,,,,,
,,,,,,,6013013f04461412e683baef,23,2023-07-20_11h43.24.643,templeton2A_SD_practice,2020.2.10,Win32,60,,,,,,,,,,,,,,,,,,,,,,3.9279,5.980184159,,,,,,,,,,,,,,,,,,,,,,,,,,,,,,,,,,,,,,,,,,,,,,,,,,,,,,,,,,,,,,,,,,,,,,,,,,,,,,,,,,,,,,,,,,,
,,,,,,,6013013f04461412e683baef,23,2023-07-20_11h43.24.643,templeton2A_SD_practice,2020.2.10,Win32,60,,,,,,,,,,,,,,,,,,,,,,3.9446,5.980184159,,,,,,,,,,,,,,,,,,,,,,,,,,,,,,,,,,,,,,,,,,,,,,,,,,,,,,,,,,,,,,,,,,,,,,,,,,,,,,,,,,,,,,,,,,,
,,,,,,,6013013f04461412e683baef,23,2023-07-20_11h43.24.643,templeton2A_SD_practice,2020.2.10,Win32,60,,,,,,,,,,,,,,,,,,,,,,3.9612,5.980184159,,,,,,,,,,,,,,,,,,,,,,,,,,,,,,,,,,,,,,,,,,,,,,,,,,,,,,,,,,,,,,,,,,,,,,,,,,,,,,,,,,,,,,,,,,,
,,,,,,,6013013f04461412e683baef,23,2023-07-20_11h43.24.643,templeton2A_SD_practice,2020.2.10,Win32,60,,,,,,,,,,,,,,,,,,,,,,3.9779,5.980184159,,,,,,,,,,,,,,,,,,,,,,,,,,,,,,,,,,,,,,,,,,,,,,,,,,,,,,,,,,,,,,,,,,,,,,,,,,,,,,,,,,,,,,,,,,,
,,,,,,,6013013f04461412e683baef,23,2023-07-20_11h43.24.643,templeton2A_SD_practice,2020.2.10,Win32,60,,,,,,,,,,,,,,,,,,,,,,3.9947,5.980184159,,,,,,,,,,,,,,,,,,,,,,,,,,,,,,,,,,,,,,,,,,,,,,,,,,,,,,,,,,,,,,,,,,,,,,,,,,,,,,,,,,,,,,,,,,,
,,,,,,,6013013f04461412e683baef,23,2023-07-20_11h43.24.643,templeton2A_SD_practice,2020.2.10,Win32,60,,,,,,,,,,,,,,,,,,,,,,4.0112,5.980184159,,,,,,,,,,,,,,,,,,,,,,,,,,,,,,,,,,,,,,,,,,,,,,,,,,,,,,,,,,,,,,,,,,,,,,,,,,,,,,,,,,,,,,,,,,,
,,,,,,,6013013f04461412e683baef,23,2023-07-20_11h43.24.643,templeton2A_SD_practice,2020.2.10,Win32,60,,,,,,,,,,,,,,,,,,,,,,4.0284,5.980184159,,,,,,,,,,,,,,,,,,,,,,,,,,,,,,,,,,,,,,,,,,,,,,,,,,,,,,,,,,,,,,,,,,,,,,,,,,,,,,,,,,,,,,,,,,,
,,,,,,,6013013f04461412e683baef,23,2023-07-20_11h43.24.643,templeton2A_SD_practice,2020.2.10,Win32,60,,,,,,,,,,,,,,,,,,,,,,4.0451,5.980184159,,,,,,,,,,,,,,,,,,,,,,,,,,,,,,,,,,,,,,,,,,,,,,,,,,,,,,,,,,,,,,,,,,,,,,,,,,,,,,,,,,,,,,,,,,,
,,,,,,,6013013f04461412e683baef,23,2023-07-20_11h43.24.643,templeton2A_SD_practice,2020.2.10,Win32,60,,,,,,,,,,,,,,,,,,,,,,4.0614,5.980184159,,,,,,,,,,,,,,,,,,,,,,,,,,,,,,,,,,,,,,,,,,,,,,,,,,,,,,,,,,,,,,,,,,,,,,,,,,,,,,,,,,,,,,,,,,,
,,,,,,,6013013f04461412e683baef,23,2023-07-20_11h43.24.643,templeton2A_SD_practice,2020.2.10,Win32,60,,,,,,,,,,,,,,,,,,,,,,4.0784,5.980184159,,,,,,,,,,,,,,,,,,,,,,,,,,,,,,,,,,,,,,,,,,,,,,,,,,,,,,,,,,,,,,,,,,,,,,,,,,,,,,,,,,,,,,,,,,,
,,,,,,,6013013f04461412e683baef,23,2023-07-20_11h43.24.643,templeton2A_SD_practice,2020.2.10,Win32,60,,,,,,,,,,,,,,,,,,,,,,4.0949,5.980184159,,,,,,,,,,,,,,,,,,,,,,,,,,,,,,,,,,,,,,,,,,,,,,,,,,,,,,,,,,,,,,,,,,,,,,,,,,,,,,,,,,,,,,,,,,,
,,,,,,,6013013f04461412e683baef,23,2023-07-20_11h43.24.643,templeton2A_SD_practice,2020.2.10,Win32,60,,,,,,,,,,,,,,,,,,,,,,4.1117,5.980184159,,,,,,,,,,,,,,,,,,,,,,,,,,,,,,,,,,,,,,,,,,,,,,,,,,,,,,,,,,,,,,,,,,,,,,,,,,,,,,,,,,,,,,,,,,,
,,,,,,,6013013f04461412e683baef,23,2023-07-20_11h43.24.643,templeton2A_SD_practice,2020.2.10,Win32,60,,,,,,,,,,,,,,,,,,,,,,4.1283,5.980184159,,,,,,,,,,,,,,,,,,,,,,,,,,,,,,,,,,,,,,,,,,,,,,,,,,,,,,,,,,,,,,,,,,,,,,,,,,,,,,,,,,,,,,,,,,,
,,,,,,,6013013f04461412e683baef,23,2023-07-20_11h43.24.643,templeton2A_SD_practice,2020.2.10,Win32,60,,,,,,,,,,,,,,,,,,,,,,4.145,5.980184159,,,,,,,,,,,,,,,,,,,,,,,,,,,,,,,,,,,,,,,,,,,,,,,,,,,,,,,,,,,,,,,,,,,,,,,,,,,,,,,,,,,,,,,,,,,
,,,,,,,6013013f04461412e683baef,23,2023-07-20_11h43.24.643,templeton2A_SD_practice,2020.2.10,Win32,60,,,,,,,,,,,,,,,,,,,,,,4.1615,5.980184159,,,,,,,,,,,,,,,,,,,,,,,,,,,,,,,,,,,,,,,,,,,,,,,,,,,,,,,,,,,,,,,,,,,,,,,,,,,,,,,,,,,,,,,,,,,
,,,,,,,6013013f04461412e683baef,23,2023-07-20_11h43.24.643,templeton2A_SD_practice,2020.2.10,Win32,60,,,,,,,,,,,,,,,,,,,,,,4.1783,5.980184159,,,,,,,,,,,,,,,,,,,,,,,,,,,,,,,,,,,,,,,,,,,,,,,,,,,,,,,,,,,,,,,,,,,,,,,,,,,,,,,,,,,,,,,,,,,
,,,,,,,6013013f04461412e683baef,23,2023-07-20_11h43.24.643,templeton2A_SD_practice,2020.2.10,Win32,60,,,,,,,,,,,,,,,,,,,,,,4.1946,5.980184159,,,,,,,,,,,,,,,,,,,,,,,,,,,,,,,,,,,,,,,,,,,,,,,,,,,,,,,,,,,,,,,,,,,,,,,,,,,,,,,,,,,,,,,,,,,
,,,,,,,6013013f04461412e683baef,23,2023-07-20_11h43.24.643,templeton2A_SD_practice,2020.2.10,Win32,60,,,,,,,,,,,,,,,,,,,,,,4.2114,5.980184159,,,,,,,,,,,,,,,,,,,,,,,,,,,,,,,,,,,,,,,,,,,,,,,,,,,,,,,,,,,,,,,,,,,,,,,,,,,,,,,,,,,,,,,,,,,
,,,,,,,6013013f04461412e683baef,23,2023-07-20_11h43.24.643,templeton2A_SD_practice,2020.2.10,Win32,60,,,,,,,,,,,,,,,,,,,,,,4.2304,5.980184159,,,,,,,,,,,,,,,,,,,,,,,,,,,,,,,,,,,,,,,,,,,,,,,,,,,,,,,,,,,,,,,,,,,,,,,,,,,,,,,,,,,,,,,,,,,
,,,,,,,6013013f04461412e683baef,23,2023-07-20_11h43.24.643,templeton2A_SD_practice,2020.2.10,Win32,60,,,,,,,,,,,,,,,,,,,,,,4.2447,5.980184159,,,,,,,,,,,,,,,,,,,,,,,,,,,,,,,,,,,,,,,,,,,,,,,,,,,,,,,,,,,,,,,,,,,,,,,,,,,,,,,,,,,,,,,,,,,
,,,,,,,6013013f04461412e683baef,23,2023-07-20_11h43.24.643,templeton2A_SD_practice,2020.2.10,Win32,60,,,,,,,,,,,,,,,,,,,,,,4.2608,5.980184159,,,,,,,,,,,,,,,,,,,,,,,,,,,,,,,,,,,,,,,,,,,,,,,,,,,,,,,,,,,,,,,,,,,,,,,,,,,,,,,,,,,,,,,,,,,
,,,,,,,6013013f04461412e683baef,23,2023-07-20_11h43.24.643,templeton2A_SD_practice,2020.2.10,Win32,60,,,,,,,,,,,,,,,,,,,,,,4.2776,5.980184159,,,,,,,,,,,,,,,,,,,,,,,,,,,,,,,,,,,,,,,,,,,,,,,,,,,,,,,,,,,,,,,,,,,,,,,,,,,,,,,,,,,,,,,,,,,
,,,,,,,6013013f04461412e683baef,23,2023-07-20_11h43.24.643,templeton2A_SD_practice,2020.2.10,Win32,60,,,,,,,,,,,,,,,,,,,,,,4.2945,5.980184159,,,,,,,,,,,,,,,,,,,,,,,,,,,,,,,,,,,,,,,,,,,,,,,,,,,,,,,,,,,,,,,,,,,,,,,,,,,,,,,,,,,,,,,,,,,
,,,,,,,6013013f04461412e683baef,23,2023-07-20_11h43.24.643,templeton2A_SD_practice,2020.2.10,Win32,60,,,,,,,,,,,,,,,,,,,,,,4.3115,5.980184159,,,,,,,,,,,,,,,,,,,,,,,,,,,,,,,,,,,,,,,,,,,,,,,,,,,,,,,,,,,,,,,,,,,,,,,,,,,,,,,,,,,,,,,,,,,
,,,,,,,6013013f04461412e683baef,23,2023-07-20_11h43.24.643,templeton2A_SD_practice,2020.2.10,Win32,60,,,,,,,,,,,,,,,,,,,,,,4.3276,5.980184159,,,,,,,,,,,,,,,,,,,,,,,,,,,,,,,,,,,,,,,,,,,,,,,,,,,,,,,,,,,,,,,,,,,,,,,,,,,,,,,,,,,,,,,,,,,
,,,,,,,6013013f04461412e683baef,23,2023-07-20_11h43.24.643,templeton2A_SD_practice,2020.2.10,Win32,60,,,,,,,,,,,,,,,,,,,,,,4.3446,5.980184159,,,,,,,,,,,,,,,,,,,,,,,,,,,,,,,,,,,,,,,,,,,,,,,,,,,,,,,,,,,,,,,,,,,,,,,,,,,,,,,,,,,,,,,,,,,
,,,,,,,6013013f04461412e683baef,23,2023-07-20_11h43.24.643,templeton2A_SD_practice,2020.2.10,Win32,60,,,,,,,,,,,,,,,,,,,,,,4.3615,5.980184159,,,,,,,,,,,,,,,,,,,,,,,,,,,,,,,,,,,,,,,,,,,,,,,,,,,,,,,,,,,,,,,,,,,,,,,,,,,,,,,,,,,,,,,,,,,
,,,,,,,6013013f04461412e683baef,23,2023-07-20_11h43.24.643,templeton2A_SD_practice,2020.2.10,Win32,60,,,,,,,,,,,,,,,,,,,,,,4.3778,5.980184159,,,,,,,,,,,,,,,,,,,,,,,,,,,,,,,,,,,,,,,,,,,,,,,,,,,,,,,,,,,,,,,,,,,,,,,,,,,,,,,,,,,,,,,,,,,
,,,,,,,6013013f04461412e683baef,23,2023-07-20_11h43.24.643,templeton2A_SD_practice,2020.2.10,Win32,60,,,,,,,,,,,,,,,,,,,,,,4.3947,5.980184159,,,,,,,,,,,,,,,,,,,,,,,,,,,,,,,,,,,,,,,,,,,,,,,,,,,,,,,,,,,,,,,,,,,,,,,,,,,,,,,,,,,,,,,,,,,
,,,,,,,6013013f04461412e683baef,23,2023-07-20_11h43.24.643,templeton2A_SD_practice,2020.2.10,Win32,60,,,,,,,,,,,,,,,,,,,,,,4.4113,5.980184159,,,,,,,,,,,,,,,,,,,,,,,,,,,,,,,,,,,,,,,,,,,,,,,,,,,,,,,,,,,,,,,,,,,,,,,,,,,,,,,,,,,,,,,,,,,
,,,,,,,6013013f04461412e683baef,23,2023-07-20_11h43.24.643,templeton2A_SD_practice,2020.2.10,Win32,60,,,,,,,,,,,,,,,,,,,,,,4.4277,5.980184159,,,,,,,,,,,,,,,,,,,,,,,,,,,,,,,,,,,,,,,,,,,,,,,,,,,,,,,,,,,,,,,,,,,,,,,,,,,,,,,,,,,,,,,,,,,
,,,,,,,6013013f04461412e683baef,23,2023-07-20_11h43.24.643,templeton2A_SD_practice,2020.2.10,Win32,60,,,,,,,,,,,,,,,,,,,,,,4.4451,5.980184159,,,,,,,,,,,,,,,,,,,,,,,,,,,,,,,,,,,,,,,,,,,,,,,,,,,,,,,,,,,,,,,,,,,,,,,,,,,,,,,,,,,,,,,,,,,
,,,,,,,6013013f04461412e683baef,23,2023-07-20_11h43.24.643,templeton2A_SD_practice,2020.2.10,Win32,60,,,,,,,,,,,,,,,,,,,,,,4.4612,5.980184159,,,,,,,,,,,,,,,,,,,,,,,,,,,,,,,,,,,,,,,,,,,,,,,,,,,,,,,,,,,,,,,,,,,,,,,,,,,,,,,,,,,,,,,,,,,
,,,,,,,6013013f04461412e683baef,23,2023-07-20_11h43.24.643,templeton2A_SD_practice,2020.2.10,Win32,60,,,,,,,,,,,,,,,,,,,,,,4.4779,5.980184159,,,,,,,,,,,,,,,,,,,,,,,,,,,,,,,,,,,,,,,,,,,,,,,,,,,,,,,,,,,,,,,,,,,,,,,,,,,,,,,,,,,,,,,,,,,
,,,,,,,6013013f04461412e683baef,23,2023-07-20_11h43.24.643,templeton2A_SD_practice,2020.2.10,Win32,60,,,,,,,,,,,,,,,,,,,,,,4.4944,5.980184159,,,,,,,,,,,,,,,,,,,,,,,,,,,,,,,,,,,,,,,,,,,,,,,,,,,,,,,,,,,,,,,,,,,,,,,,,,,,,,,,,,,,,,,,,,,
,,,,,,,6013013f04461412e683baef,23,2023-07-20_11h43.24.643,templeton2A_SD_practice,2020.2.10,Win32,60,,,,,,,,,,,,,,,,,,,,,,4.5112,5.980184159,,,,,,,,,,,,,,,,,,,,,,,,,,,,,,,,,,,,,,,,,,,,,,,,,,,,,,,,,,,,,,,,,,,,,,,,,,,,,,,,,,,,,,,,,,,
,,,,,,,6013013f04461412e683baef,23,2023-07-20_11h43.24.643,templeton2A_SD_practice,2020.2.10,Win32,60,,,,,,,,,,,,,,,,,,,,,,4.5275,5.980184159,,,,,,,,,,,,,,,,,,,,,,,,,,,,,,,,,,,,,,,,,,,,,,,,,,,,,,,,,,,,,,,,,,,,,,,,,,,,,,,,,,,,,,,,,,,
,,,,,,,6013013f04461412e683baef,23,2023-07-20_11h43.24.643,templeton2A_SD_practice,2020.2.10,Win32,60,,,,,,,,,,,,,,,,,,,,,,4.5445,5.980184159,,,,,,,,,,,,,,,,,,,,,,,,,,,,,,,,,,,,,,,,,,,,,,,,,,,,,,,,,,,,,,,,,,,,,,,,,,,,,,,,,,,,,,,,,,,
,,,,,,,6013013f04461412e683baef,23,2023-07-20_11h43.24.643,templeton2A_SD_practice,2020.2.10,Win32,60,,,,,,,,,,,,,,,,,,,,,,4.5609,5.980184159,,,,,,,,,,,,,,,,,,,,,,,,,,,,,,,,,,,,,,,,,,,,,,,,,,,,,,,,,,,,,,,,,,,,,,,,,,,,,,,,,,,,,,,,,,,
,,,,,,,6013013f04461412e683baef,23,2023-07-20_11h43.24.643,templeton2A_SD_practice,2020.2.10,Win32,60,,,,,,,,,,,,,,,,,,,,,,4.5782,5.980184159,,,,,,,,,,,,,,,,,,,,,,,,,,,,,,,,,,,,,,,,,,,,,,,,,,,,,,,,,,,,,,,,,,,,,,,,,,,,,,,,,,,,,,,,,,,
,,,,,,,6013013f04461412e683baef,23,2023-07-20_11h43.24.643,templeton2A_SD_practice,2020.2.10,Win32,60,,,,,,,,,,,,,,,,,,,,,,4.5945,5.980184159,,,,,,,,,,,,,,,,,,,,,,,,,,,,,,,,,,,,,,,,,,,,,,,,,,,,,,,,,,,,,,,,,,,,,,,,,,,,,,,,,,,,,,,,,,,
,,,,,,,6013013f04461412e683baef,23,2023-07-20_11h43.24.643,templeton2A_SD_practice,2020.2.10,Win32,60,,,,,,,,,,,,,,,,,,,,,,4.6111,5.980184159,,,,,,,,,,,,,,,,,,,,,,,,,,,,,,,,,,,,,,,,,,,,,,,,,,,,,,,,,,,,,,,,,,,,,,,,,,,,,,,,,,,,,,,,,,,
,,,,,,,6013013f04461412e683baef,23,2023-07-20_11h43.24.643,templeton2A_SD_practice,2020.2.10,Win32,60,,,,,,,,,,,,,,,,,,,,,,4.6278,5.980184159,,,,,,,,,,,,,,,,,,,,,,,,,,,,,,,,,,,,,,,,,,,,,,,,,,,,,,,,,,,,,,,,,,,,,,,,,,,,,,,,,,,,,,,,,,,
,,,,,,,6013013f04461412e683baef,23,2023-07-20_11h43.24.643,templeton2A_SD_practice,2020.2.10,Win32,60,,,,,,,,,,,,,,,,,,,,,,4.6446,5.980184159,,,,,,,,,,,,,,,,,,,,,,,,,,,,,,,,,,,,,,,,,,,,,,,,,,,,,,,,,,,,,,,,,,,,,,,,,,,,,,,,,,,,,,,,,,,
,,,,,,,6013013f04461412e683baef,23,2023-07-20_11h43.24.643,templeton2A_SD_practice,2020.2.10,Win32,60,,,,,,,,,,,,,,,,,,,,,,4.6633,5.980184159,,,,,,,,,,,,,,,,,,,,,,,,,,,,,,,,,,,,,,,,,,,,,,,,,,,,,,,,,,,,,,,,,,,,,,,,,,,,,,,,,,,,,,,,,,,
,,,,,,,6013013f04461412e683baef,23,2023-07-20_11h43.24.643,templeton2A_SD_practice,2020.2.10,Win32,60,,,,,,,,,,,,,,,,,,,,,,4.6774,5.980184159,,,,,,,,,,,,,,,,,,,,,,,,,,,,,,,,,,,,,,,,,,,,,,,,,,,,,,,,,,,,,,,,,,,,,,,,,,,,,,,,,,,,,,,,,,,
,,,,,,,6013013f04461412e683baef,23,2023-07-20_11h43.24.643,templeton2A_SD_practice,2020.2.10,Win32,60,,,,,,,,,,,,,,,,,,,,,,4.6942,5.980184159,,,,,,,,,,,,,,,,,,,,,,,,,,,,,,,,,,,,,,,,,,,,,,,,,,,,,,,,,,,,,,,,,,,,,,,,,,,,,,,,,,,,,,,,,,,
,,,,,,,6013013f04461412e683baef,23,2023-07-20_11h43.24.643,templeton2A_SD_practice,2020.2.10,Win32,60,,,,,,,,,,,,,,,,,,,,,,4.711,5.980184159,,,,,,,,,,,,,,,,,,,,,,,,,,,,,,,,,,,,,,,,,,,,,,,,,,,,,,,,,,,,,,,,,,,,,,,,,,,,,,,,,,,,,,,,,,,
,,,,,,,6013013f04461412e683baef,23,2023-07-20_11h43.24.643,templeton2A_SD_practice,2020.2.10,Win32,60,,,,,,,,,,,,,,,,,,,,,,4.7276,5.980184159,,,,,,,,,,,,,,,,,,,,,,,,,,,,,,,,,,,,,,,,,,,,,,,,,,,,,,,,,,,,,,,,,,,,,,,,,,,,,,,,,,,,,,,,,,,
,,,,,,,6013013f04461412e683baef,23,2023-07-20_11h43.24.643,templeton2A_SD_practice,2020.2.10,Win32,60,,,,,,,,,,,,,,,,,,,,,,4.7444,5.980184159,,,,,,,,,,,,,,,,,,,,,,,,,,,,,,,,,,,,,,,,,,,,,,,,,,,,,,,,,,,,,,,,,,,,,,,,,,,,,,,,,,,,,,,,,,,
,,,,,,,6013013f04461412e683baef,23,2023-07-20_11h43.24.643,templeton2A_SD_practice,2020.2.10,Win32,60,,,,,,,,,,,,,,,,,,,,,,4.761,5.980184159,,,,,,,,,,,,,,,,,,,,,,,,,,,,,,,,,,,,,,,,,,,,,,,,,,,,,,,,,,,,,,,,,,,,,,,,,,,,,,,,,,,,,,,,,,,
,,,,,,,6013013f04461412e683baef,23,2023-07-20_11h43.24.643,templeton2A_SD_practice,2020.2.10,Win32,60,,,,,,,,,,,,,,,,,,,,,,4.7777,5.980184159,,,,,,,,,,,,,,,,,,,,,,,,,,,,,,,,,,,,,,,,,,,,,,,,,,,,,,,,,,,,,,,,,,,,,,,,,,,,,,,,,,,,,,,,,,,
,,,,,,,6013013f04461412e683baef,23,2023-07-20_11h43.24.643,templeton2A_SD_practice,2020.2.10,Win32,60,,,,,,,,,,,,,,,,,,,,,,4.7943,5.980184159,,,,,,,,,,,,,,,,,,,,,,,,,,,,,,,,,,,,,,,,,,,,,,,,,,,,,,,,,,,,,,,,,,,,,,,,,,,,,,,,,,,,,,,,,,,
,,,,,,,6013013f04461412e683baef,23,2023-07-20_11h43.24.643,templeton2A_SD_practice,2020.2.10,Win32,60,,,,,,,,,,,,,,,,,,,,,,4.8106,5.980184159,,,,,,,,,,,,,,,,,,,,,,,,,,,,,,,,,,,,,,,,,,,,,,,,,,,,,,,,,,,,,,,,,,,,,,,,,,,,,,,,,,,,,,,,,,,
,,,,,,,6013013f04461412e683baef,23,2023-07-20_11h43.24.643,templeton2A_SD_practice,2020.2.10,Win32,60,,,,,,,,,,,,,,,,,,,,,,4.8276,5.980184159,,,,,,,,,,,,,,,,,,,,,,,,,,,,,,,,,,,,,,,,,,,,,,,,,,,,,,,,,,,,,,,,,,,,,,,,,,,,,,,,,,,,,,,,,,,
,,,,,,,6013013f04461412e683baef,23,2023-07-20_11h43.24.643,templeton2A_SD_practice,2020.2.10,Win32,60,,,,,,,,,,,,,,,,,,,,,,4.8443,5.980184159,,,,,,,,,,,,,,,,,,,,,,,,,,,,,,,,,,,,,,,,,,,,,,,,,,,,,,,,,,,,,,,,,,,,,,,,,,,,,,,,,,,,,,,,,,,
,,,,,,,6013013f04461412e683baef,23,2023-07-20_11h43.24.643,templeton2A_SD_practice,2020.2.10,Win32,60,,,,,,,,,,,,,,,,,,,,,,4.8609,5.980184159,,,,,,,,,,,,,,,,,,,,,,,,,,,,,,,,,,,,,,,,,,,,,,,,,,,,,,,,,,,,,,,,,,,,,,,,,,,,,,,,,,,,,,,,,,,
,,,,,,,6013013f04461412e683baef,23,2023-07-20_11h43.24.643,templeton2A_SD_practice,2020.2.10,Win32,60,,,,,,,,,,,,,,,,,,,,,,4.8776,5.980184159,,,,,,,,,,,,,,,,,,,,,,,,,,,,,,,,,,,,,,,,,,,,,,,,,,,,,,,,,,,,,,,,,,,,,,,,,,,,,,,,,,,,,,,,,,,
,,,,,,,6013013f04461412e683baef,23,2023-07-20_11h43.24.643,templeton2A_SD_practice,2020.2.10,Win32,60,,,,,,,,,,,,,,,,,,,,,,4.894,5.980184159,,,,,,,,,,,,,,,,,,,,,,,,,,,,,,,,,,,,,,,,,,,,,,,,,,,,,,,,,,,,,,,,,,,,,,,,,,,,,,,,,,,,,,,,,,,
,,,,,,,6013013f04461412e683baef,23,2023-07-20_11h43.24.643,templeton2A_SD_practice,2020.2.10,Win32,60,,,,,,,,,,,,,,,,,,,,,,4.9106,5.980184159,,,,,,,,,,,,,,,,,,,,,,,,,,,,,,,,,,,,,,,,,,,,,,,,,,,,,,,,,,,,,,,,,,,,,,,,,,,,,,,,,,,,,,,,,,,
,,,,,,,6013013f04461412e683baef,23,2023-07-20_11h43.24.643,templeton2A_SD_practice,2020.2.10,Win32,60,,,,,,,,,,,,,,,,,,,,,,4.9274,5.980184159,,,,,,,,,,,,,,,,,,,,,,,,,,,,,,,,,,,,,,,,,,,,,,,,,,,,,,,,,,,,,,,,,,,,,,,,,,,,,,,,,,,,,,,,,,,
,,,,,,,6013013f04461412e683baef,23,2023-07-20_11h43.24.643,templeton2A_SD_practice,2020.2.10,Win32,60,,,,,,,,,,,,,,,,,,,,,,4.9441,5.980184159,,,,,,,,,,,,,,,,,,,,,,,,,,,,,,,,,,,,,,,,,,,,,,,,,,,,,,,,,,,,,,,,,,,,,,,,,,,,,,,,,,,,,,,,,,,
,,,,,,,6013013f04461412e683baef,23,2023-07-20_11h43.24.643,templeton2A_SD_practice,2020.2.10,Win32,60,,,,,,,,,,,,,,,,,,,,,,4.9608,5.980184159,,,,,,,,,,,,,,,,,,,,,,,,,,,,,,,,,,,,,,,,,,,,,,,,,,,,,,,,,,,,,,,,,,,,,,,,,,,,,,,,,,,,,,,,,,,
,,,,,,,6013013f04461412e683baef,23,2023-07-20_11h43.24.643,templeton2A_SD_practice,2020.2.10,Win32,60,,,,,,,,,,,,,,,,,,,,,,4.9774,5.980184159,,,,,,,,,,,,,,,,,,,,,,,,,,,,,,,,,,,,,,,,,,,,,,,,,,,,,,,,,,,,,,,,,,,,,,,,,,,,,,,,,,,,,,,,,,,
,,,,,,,6013013f04461412e683baef,23,2023-07-20_11h43.24.643,templeton2A_SD_practice,2020.2.10,Win32,60,,,,,,,,,,,,,,,,,,,,,,4.9941,5.980184159,,,,,,,,,,,,,,,,,,,,,,,,,,,,,,,,,,,,,,,,,,,,,,,,,,,,,,,,,,,,,,,,,,,,,,,,,,,,,,,,,,,,,,,,,,,
,,,,,,,6013013f04461412e683baef,23,2023-07-20_11h43.24.643,templeton2A_SD_practice,2020.2.10,Win32,60,,,,,,,,,,,,,,,,,,,,,,5.0108,5.980184159,,,,,,,,,,,,,,,,,,,,,,,,,,,,,,,,,,,,,,,,,,,,,,,,,,,,,,,,,,,,,,,,,,,,,,,,,,,,,,,,,,,,,,,,,,,
,,,,,,,6013013f04461412e683baef,23,2023-07-20_11h43.24.643,templeton2A_SD_practice,2020.2.10,Win32,60,,,,,,,,,,,,,,,,,,,,,,5.0269,5.980184159,,,,,,,,,,,,,,,,,,,,,,,,,,,,,,,,,,,,,,,,,,,,,,,,,,,,,,,,,,,,,,,,,,,,,,,,,,,,,,,,,,,,,,,,,,,
,,,,,,,6013013f04461412e683baef,23,2023-07-20_11h43.24.643,templeton2A_SD_practice,2020.2.10,Win32,60,,,,,,,,,,,,,,,,,,,,,,5.0438,5.980184159,,,,,,,,,,,,,,,,,,,,,,,,,,,,,,,,,,,,,,,,,,,,,,,,,,,,,,,,,,,,,,,,,,,,,,,,,,,,,,,,,,,,,,,,,,,
,,,,,,,6013013f04461412e683baef,23,2023-07-20_11h43.24.643,templeton2A_SD_practice,2020.2.10,Win32,60,,,,,,,,,,,,,,,,,,,,,,5.0602,5.980184159,,,,,,,,,,,,,,,,,,,,,,,,,,,,,,,,,,,,,,,,,,,,,,,,,,,,,,,,,,,,,,,,,,,,,,,,,,,,,,,,,,,,,,,,,,,
,,,,,,,6013013f04461412e683baef,23,2023-07-20_11h43.24.643,templeton2A_SD_practice,2020.2.10,Win32,60,,,,,,,,,,,,,,,,,,,,,,5.077,5.980184159,,,,,,,,,,,,,,,,,,,,,,,,,,,,,,,,,,,,,,,,,,,,,,,,,,,,,,,,,,,,,,,,,,,,,,,,,,,,,,,,,,,,,,,,,,,
,,,,,,,6013013f04461412e683baef,23,2023-07-20_11h43.24.643,templeton2A_SD_practice,2020.2.10,Win32,60,,,,,,,,,,,,,,,,,,,,,,5.0936,5.980184159,,,,,,,,,,,,,,,,,,,,,,,,,,,,,,,,,,,,,,,,,,,,,,,,,,,,,,,,,,,,,,,,,,,,,,,,,,,,,,,,,,,,,,,,,,,
,,,,,,,6013013f04461412e683baef,23,2023-07-20_11h43.24.643,templeton2A_SD_practice,2020.2.10,Win32,60,,,,,,,,,,,,,,,,,,,,,,5.111,5.980184159,,,,,,,,,,,,,,,,,,,,,,,,,,,,,,,,,,,,,,,,,,,,,,,,,,,,,,,,,,,,,,,,,,,,,,,,,,,,,,,,,,,,,,,,,,,
,,,,,,,6013013f04461412e683baef,23,2023-07-20_11h43.24.643,templeton2A_SD_practice,2020.2.10,Win32,60,,,,,,,,,,,,,,,,,,,,,,5.1273,5.980184159,,,,,,,,,,,,,,,,,,,,,,,,,,,,,,,,,,,,,,,,,,,,,,,,,,,,,,,,,,,,,,,,,,,,,,,,,,,,,,,,,,,,,,,,,,,
,,,,,,,6013013f04461412e683baef,23,2023-07-20_11h43.24.643,templeton2A_SD_practice,2020.2.10,Win32,60,,,,,,,,,,,,,,,,,,,,,,5.1437,5.980184159,,,,,,,,,,,,,,,,,,,,,,,,,,,,,,,,,,,,,,,,,,,,,,,,,,,,,,,,,,,,,,,,,,,,,,,,,,,,,,,,,,,,,,,,,,,
,,,,,,,6013013f04461412e683baef,23,2023-07-20_11h43.24.643,templeton2A_SD_practice,2020.2.10,Win32,60,,,,,,,,,,,,,,,,,,,,,,5.1608,5.980184159,,,,,,,,,,,,,,,,,,,,,,,,,,,,,,,,,,,,,,,,,,,,,,,,,,,,,,,,,,,,,,,,,,,,,,,,,,,,,,,,,,,,,,,,,,,
,,,,,,,6013013f04461412e683baef,23,2023-07-20_11h43.24.643,templeton2A_SD_practice,2020.2.10,Win32,60,,,,,,,,,,,,,,,,,,,,,,5.1774,5.980184159,,,,,,,,,,,,,,,,,,,,,,,,,,,,,,,,,,,,,,,,,,,,,,,,,,,,,,,,,,,,,,,,,,,,,,,,,,,,,,,,,,,,,,,,,,,
,,,,,,,6013013f04461412e683baef,23,2023-07-20_11h43.24.643,templeton2A_SD_practice,2020.2.10,Win32,60,,,,,,,,,,,,,,,,,,,,,,5.1939,5.980184159,,,,,,,,,,,,,,,,,,,,,,,,,,,,,,,,,,,,,,,,,,,,,,,,,,,,,,,,,,,,,,,,,,,,,,,,,,,,,,,,,,,,,,,,,,,
,,,,,,,6013013f04461412e683baef,23,2023-07-20_11h43.24.643,templeton2A_SD_practice,2020.2.10,Win32,60,,,,,,,,,,,,,,,,,,,,,,5.2105,5.980184159,,,,,,,,,,,,,,,,,,,,,,,,,,,,,,,,,,,,,,,,,,,,,,,,,,,,,,,,,,,,,,,,,,,,,,,,,,,,,,,,,,,,,,,,,,,
,,,,,,,6013013f04461412e683baef,23,2023-07-20_11h43.24.643,templeton2A_SD_practice,2020.2.10,Win32,60,,,,,,,,,,,,,,,,,,,,,,5.2273,5.980184159,,,,,,,,,,,,,,,,,,,,,,,,,,,,,,,,,,,,,,,,,,,,,,,,,,,,,,,,,,,,,,,,,,,,,,,,,,,,,,,,,,,,,,,,,,,
,,,,,,,6013013f04461412e683baef,23,2023-07-20_11h43.24.643,templeton2A_SD_practice,2020.2.10,Win32,60,,,,,,,,,,,,,,,,,,,,,,5.2436,5.980184159,,,,,,,,,,,,,,,,,,,,,,,,,,,,,,,,,,,,,,,,,,,,,,,,,,,,,,,,,,,,,,,,,,,,,,,,,,,,,,,,,,,,,,,,,,,
,,,,,,,6013013f04461412e683baef,23,2023-07-20_11h43.24.643,templeton2A_SD_practice,2020.2.10,Win32,60,,,,,,,,,,,,,,,,,,,,,,5.2601,5.980184159,,,,,,,,,,,,,,,,,,,,,,,,,,,,,,,,,,,,,,,,,,,,,,,,,,,,,,,,,,,,,,,,,,,,,,,,,,,,,,,,,,,,,,,,,,,
,,,,,,,6013013f04461412e683baef,23,2023-07-20_11h43.24.643,templeton2A_SD_practice,2020.2.10,Win32,60,,,,,,,,,,,,,,,,,,,,,,5.2773,5.980184159,,,,,,,,,,,,,,,,,,,,,,,,,,,,,,,,,,,,,,,,,,,,,,,,,,,,,,,,,,,,,,,,,,,,,,,,,,,,,,,,,,,,,,,,,,,
,,,,,,,6013013f04461412e683baef,23,2023-07-20_11h43.24.643,templeton2A_SD_practice,2020.2.10,Win32,60,,,,,,,,,,,,,,,,,,,,,,5.2938,5.980184159,,,,,,,,,,,,,,,,,,,,,,,,,,,,,,,,,,,,,,,,,,,,,,,,,,,,,,,,,,,,,,,,,,,,,,,,,,,,,,,,,,,,,,,,,,,
,,,,,,,6013013f04461412e683baef,23,2023-07-20_11h43.24.643,templeton2A_SD_practice,2020.2.10,Win32,60,,,,,,,,,,,,,,,,,,,,,,5.3105,5.980184159,,,,,,,,,,,,,,,,,,,,,,,,,,,,,,,,,,,,,,,,,,,,,,,,,,,,,,,,,,,,,,,,,,,,,,,,,,,,,,,,,,,,,,,,,,,
,,,,,,,6013013f04461412e683baef,23,2023-07-20_11h43.24.643,templeton2A_SD_practice,2020.2.10,Win32,60,,,,,,,,,,,,,,,,,,,,,,5.3266,5.980184159,,,,,,,,,,,,,,,,,,,,,,,,,,,,,,,,,,,,,,,,,,,,,,,,,,,,,,,,,,,,,,,,,,,,,,,,,,,,,,,,,,,,,,,,,,,
,,,,,,,6013013f04461412e683baef,23,2023-07-20_11h43.24.643,templeton2A_SD_practice,2020.2.10,Win32,60,,,,,,,,,,,,,,,,,,,,,,5.3438,5.980184159,,,,,,,,,,,,,,,,,,,,,,,,,,,,,,,,,,,,,,,,,,,,,,,,,,,,,,,,,,,,,,,,,,,,,,,,,,,,,,,,,,,,,,,,,,,
,,,,,,,6013013f04461412e683baef,23,2023-07-20_11h43.24.643,templeton2A_SD_practice,2020.2.10,Win32,60,,,,,,,,,,,,,,,,,,,,,,5.3607,5.980184159,,,,,,,,,,,,,,,,,,,,,,,,,,,,,,,,,,,,,,,,,,,,,,,,,,,,,,,,,,,,,,,,,,,,,,,,,,,,,,,,,,,,,,,,,,,
,,,,,,,6013013f04461412e683baef,23,2023-07-20_11h43.24.643,templeton2A_SD_practice,2020.2.10,Win32,60,,,,,,,,,,,,,,,,,,,,,,5.3768,5.980184159,,,,,,,,,,,,,,,,,,,,,,,,,,,,,,,,,,,,,,,,,,,,,,,,,,,,,,,,,,,,,,,,,,,,,,,,,,,,,,,,,,,,,,,,,,,
,,,,,,,6013013f04461412e683baef,23,2023-07-20_11h43.24.643,templeton2A_SD_practice,2020.2.10,Win32,60,,,,,,,,,,,,,,,,,,,,,,5.3935,5.980184159,,,,,,,,,,,,,,,,,,,,,,,,,,,,,,,,,,,,,,,,,,,,,,,,,,,,,,,,,,,,,,,,,,,,,,,,,,,,,,,,,,,,,,,,,,,
,,,,,,,6013013f04461412e683baef,23,2023-07-20_11h43.24.643,templeton2A_SD_practice,2020.2.10,Win32,60,,,,,,,,,,,,,,,,,,,,,,5.4106,5.980184159,,,,,,,,,,,,,,,,,,,,,,,,,,,,,,,,,,,,,,,,,,,,,,,,,,,,,,,,,,,,,,,,,,,,,,,,,,,,,,,,,,,,,,,,,,,
,,,,,,,6013013f04461412e683baef,23,2023-07-20_11h43.24.643,templeton2A_SD_practice,2020.2.10,Win32,60,,,,,,,,,,,,,,,,,,,,,,5.4268,5.980184159,,,,,,,,,,,,,,,,,,,,,,,,,,,,,,,,,,,,,,,,,,,,,,,,,,,,,,,,,,,,,,,,,,,,,,,,,,,,,,,,,,,,,,,,,,,
,,,,,,,6013013f04461412e683baef,23,2023-07-20_11h43.24.643,templeton2A_SD_practice,2020.2.10,Win32,60,,,,,,,,,,,,,,,,,,,,,,5.4456,5.980184159,,,,,,,,,,,,,,,,,,,,,,,,,,,,,,,,,,,,,,,,,,,,,,,,,,,,,,,,,,,,,,,,,,,,,,,,,,,,,,,,,,,,,,,,,,,
,,,,,,,6013013f04461412e683baef,23,2023-07-20_11h43.24.643,templeton2A_SD_practice,2020.2.10,Win32,60,,,,,,,,,,,,,,,,,,,,,,5.4609,5.980184159,,,,,,,,,,,,,,,,,,,,,,,,,,,,,,,,,,,,,,,,,,,,,,,,,,,,,,,,,,,,,,,,,,,,,,,,,,,,,,,,,,,,,,,,,,,
,,,,,,,6013013f04461412e683baef,23,2023-07-20_11h43.24.643,templeton2A_SD_practice,2020.2.10,Win32,60,,,,,,,,,,,,,,,,,,,,,,5.4769,5.980184159,,,,,,,,,,,,,,,,,,,,,,,,,,,,,,,,,,,,,,,,,,,,,,,,,,,,,,,,,,,,,,,,,,,,,,,,,,,,,,,,,,,,,,,,,,,
,,,,,,,6013013f04461412e683baef,23,2023-07-20_11h43.24.643,templeton2A_SD_practice,2020.2.10,Win32,60,,,,,,,,,,,,,,,,,,,,,,5.4938,5.980184159,,,,,,,,,,,,,,,,,,,,,,,,,,,,,,,,,,,,,,,,,,,,,,,,,,,,,,,,,,,,,,,,,,,,,,,,,,,,,,,,,,,,,,,,,,,
,,,,,,,6013013f04461412e683baef,23,2023-07-20_11h43.24.643,templeton2A_SD_practice,2020.2.10,Win32,60,,,,,,,,,,,,,,,,,,,,,,5.5113,5.980184159,,,,,,,,,,,,,,,,,,,,,,,,,,,,,,,,,,,,,,,,,,,,,,,,,,,,,,,,,,,,,,,,,,,,,,,,,,,,,,,,,,,,,,,,,,,
,,,,,,,6013013f04461412e683baef,23,2023-07-20_11h43.24.643,templeton2A_SD_practice,2020.2.10,Win32,60,,,,,,,,,,,,,,,,,,,,,,5.5307,5.980184159,,,,,,,,,,,,,,,,,,,,,,,,,,,,,,,,,,,,,,,,,,,,,,,,,,,,,,,,,,,,,,,,,,,,,,,,,,,,,,,,,,,,,,,,,,,
,,,,,,,6013013f04461412e683baef,23,2023-07-20_11h43.24.643,templeton2A_SD_practice,2020.2.10,Win32,60,,,,,,,,,,,,,,,,,,,,,,5.5438,5.980184159,,,,,,,,,,,,,,,,,,,,,,,,,,,,,,,,,,,,,,,,,,,,,,,,,,,,,,,,,,,,,,,,,,,,,,,,,,,,,,,,,,,,,,,,,,,
,,,,,,,6013013f04461412e683baef,23,2023-07-20_11h43.24.643,templeton2A_SD_practice,2020.2.10,Win32,60,,,,,,,,,,,,,,,,,,,,,,5.5601,5.980184159,,,,,,,,,,,,,,,,,,,,,,,,,,,,,,,,,,,,,,,,,,,,,,,,,,,,,,,,,,,,,,,,,,,,,,,,,,,,,,,,,,,,,,,,,,,
,,,,,,,6013013f04461412e683baef,23,2023-07-20_11h43.24.643,templeton2A_SD_practice,2020.2.10,Win32,60,,,,,,,,,,,,,,,,,,,,,,5.577,5.980184159,,,,,,,,,,,,,,,,,,,,,,,,,,,,,,,,,,,,,,,,,,,,,,,,,,,,,,,,,,,,,,,,,,,,,,,,,,,,,,,,,,,,,,,,,,,
,,,,,,,6013013f04461412e683baef,23,2023-07-20_11h43.24.643,templeton2A_SD_practice,2020.2.10,Win32,60,,,,,,,,,,,,,,,,,,,,,,5.5933,5.980184159,,,,,,,,,,,,,,,,,,,,,,,,,,,,,,,,,,,,,,,,,,,,,,,,,,,,,,,,,,,,,,,,,,,,,,,,,,,,,,,,,,,,,,,,,,,
,,,,,,,6013013f04461412e683baef,23,2023-07-20_11h43.24.643,templeton2A_SD_practice,2020.2.10,Win32,60,,,,,,,,,,,,,,,,,,,,,,5.6102,5.980184159,,,,,,,,,,,,,,,,,,,,,,,,,,,,,,,,,,,,,,,,,,,,,,,,,,,,,,,,,,,,,,,,,,,,,,,,,,,,,,,,,,,,,,,,,,,
,,,,,,,6013013f04461412e683baef,23,2023-07-20_11h43.24.643,templeton2A_SD_practice,2020.2.10,Win32,60,,,,,,,,,,,,,,,,,,,,,,5.6266,5.980184159,,,,,,,,,,,,,,,,,,,,,,,,,,,,,,,,,,,,,,,,,,,,,,,,,,,,,,,,,,,,,,,,,,,,,,,,,,,,,,,,,,,,,,,,,,,
,,,,,,,6013013f04461412e683baef,23,2023-07-20_11h43.24.643,templeton2A_SD_practice,2020.2.10,Win32,60,,,,,,,,,,,,,,,,,,,,,,5.6436,5.980184159,,,,,,,,,,,,,,,,,,,,,,,,,,,,,,,,,,,,,,,,,,,,,,,,,,,,,,,,,,,,,,,,,,,,,,,,,,,,,,,,,,,,,,,,,,,
,,,,,,,6013013f04461412e683baef,23,2023-07-20_11h43.24.643,templeton2A_SD_practice,2020.2.10,Win32,60,,,,,,,,,,,,,,,,,,,,,,5.6601,5.980184159,,,,,,,,,,,,,,,,,,,,,,,,,,,,,,,,,,,,,,,,,,,,,,,,,,,,,,,,,,,,,,,,,,,,,,,,,,,,,,,,,,,,,,,,,,,
,,,,,,,6013013f04461412e683baef,23,2023-07-20_11h43.24.643,templeton2A_SD_practice,2020.2.10,Win32,60,,,,,,,,,,,,,,,,,,,,,,5.6768,5.980184159,,,,,,,,,,,,,,,,,,,,,,,,,,,,,,,,,,,,,,,,,,,,,,,,,,,,,,,,,,,,,,,,,,,,,,,,,,,,,,,,,,,,,,,,,,,
,,,,,,,6013013f04461412e683baef,23,2023-07-20_11h43.24.643,templeton2A_SD_practice,2020.2.10,Win32,60,,,,,,,,,,,,,,,,,,,,,,5.6932,5.980184159,,,,,,,,,,,,,,,,,,,,,,,,,,,,,,,,,,,,,,,,,,,,,,,,,,,,,,,,,,,,,,,,,,,,,,,,,,,,,,,,,,,,,,,,,,,
,,,,,,,6013013f04461412e683baef,23,2023-07-20_11h43.24.643,templeton2A_SD_practice,2020.2.10,Win32,60,,,,,,,,,,,,,,,,,,,,,,5.7102,5.980184159,,,,,,,,,,,,,,,,,,,,,,,,,,,,,,,,,,,,,,,,,,,,,,,,,,,,,,,,,,,,,,,,,,,,,,,,,,,,,,,,,,,,,,,,,,,
,,,,,,,6013013f04461412e683baef,23,2023-07-20_11h43.24.643,templeton2A_SD_practice,2020.2.10,Win32,60,,,,,,,,,,,,,,,,,,,,,,5.7265,5.980184159,,,,,,,,,,,,,,,,,,,,,,,,,,,,,,,,,,,,,,,,,,,,,,,,,,,,,,,,,,,,,,,,,,,,,,,,,,,,,,,,,,,,,,,,,,,
,,,,,,,6013013f04461412e683baef,23,2023-07-20_11h43.24.643,templeton2A_SD_practice,2020.2.10,Win32,60,,,,,,,,,,,,,,,,,,,,,,5.743,5.980184159,,,,,,,,,,,,,,,,,,,,,,,,,,,,,,,,,,,,,,,,,,,,,,,,,,,,,,,,,,,,,,,,,,,,,,,,,,,,,,,,,,,,,,,,,,,
,,,,,,,6013013f04461412e683baef,23,2023-07-20_11h43.24.643,templeton2A_SD_practice,2020.2.10,Win32,60,,,,,,,,,,,,,,,,,,,,,,5.7602,5.980184159,,,,,,,,,,,,,,,,,,,,,,,,,,,,,,,,,,,,,,,,,,,,,,,,,,,,,,,,,,,,,,,,,,,,,,,,,,,,,,,,,,,,,,,,,,,
,,,,,,,6013013f04461412e683baef,23,2023-07-20_11h43.24.643,templeton2A_SD_practice,2020.2.10,Win32,60,,,,,,,,,,,,,,,,,,,,,,5.7766,5.980184159,,,,,,,,,,,,,,,,,,,,,,,,,,,,,,,,,,,,,,,,,,,,,,,,,,,,,,,,,,,,,,,,,,,,,,,,,,,,,,,,,,,,,,,,,,,
,,,,,,,6013013f04461412e683baef,23,2023-07-20_11h43.24.643,templeton2A_SD_practice,2020.2.10,Win32,60,,,,,,,,,,,,,,,,,,,,,,5.7934,5.980184159,,,,,,,,,,,,,,,,,,,,,,,,,,,,,,,,,,,,,,,,,,,,,,,,,,,,,,,,,,,,,,,,,,,,,,,,,,,,,,,,,,,,,,,,,,,
,,,,,,,6013013f04461412e683baef,23,2023-07-20_11h43.24.643,templeton2A_SD_practice,2020.2.10,Win32,60,,,,,,,,,,,,,,,,,,,,,,5.8101,5.980184159,,,,,,,,,,,,,,,,,,,,,,,,,,,,,,,,,,,,,,,,,,,,,,,,,,,,,,,,,,,,,,,,,,,,,,,,,,,,,,,,,,,,,,,,,,,
,,,,,,,6013013f04461412e683baef,23,2023-07-20_11h43.24.643,templeton2A_SD_practice,2020.2.10,Win32,60,,,,,,,,,,,,,,,,,,,,,,5.8268,5.980184159,,,,,,,,,,,,,,,,,,,,,,,,,,,,,,,,,,,,,,,,,,,,,,,,,,,,,,,,,,,,,,,,,,,,,,,,,,,,,,,,,,,,,,,,,,,
,,,,,,,6013013f04461412e683baef,23,2023-07-20_11h43.24.643,templeton2A_SD_practice,2020.2.10,Win32,60,,,,,,,,,,,,,,,,,,,,,,5.8435,5.980184159,,,,,,,,,,,,,,,,,,,,,,,,,,,,,,,,,,,,,,,,,,,,,,,,,,,,,,,,,,,,,,,,,,,,,,,,,,,,,,,,,,,,,,,,,,,
,,,,,,,6013013f04461412e683baef,23,2023-07-20_11h43.24.643,templeton2A_SD_practice,2020.2.10,Win32,60,,,,,,,,,,,,,,,,,,,,,,5.8597,5.980184159,,,,,,,,,,,,,,,,,,,,,,,,,,,,,,,,,,,,,,,,,,,,,,,,,,,,,,,,,,,,,,,,,,,,,,,,,,,,,,,,,,,,,,,,,,,
,,,,,,,6013013f04461412e683baef,23,2023-07-20_11h43.24.643,templeton2A_SD_practice,2020.2.10,Win32,60,,,,,,,,,,,,,,,,,,,,,,5.8763,5.980184159,,,,,,,,,,,,,,,,,,,,,,,,,,,,,,,,,,,,,,,,,,,,,,,,,,,,,,,,,,,,,,,,,,,,,,,,,,,,,,,,,,,,,,,,,,,
,,,,,,,6013013f04461412e683baef,23,2023-07-20_11h43.24.643,templeton2A_SD_practice,2020.2.10,Win32,60,,,,,,,,,,,,,,,,,,,,,,5.8931,5.980184159,,,,,,,,,,,,,,,,,,,,,,,,,,,,,,,,,,,,,,,,,,,,,,,,,,,,,,,,,,,,,,,,,,,,,,,,,,,,,,,,,,,,,,,,,,,
,,,,,,,6013013f04461412e683baef,23,2023-07-20_11h43.24.643,templeton2A_SD_practice,2020.2.10,Win32,60,,,,,,,,,,,,,,,,,,,,,,5.9099,5.980184159,,,,,,,,,,,,,,,,,,,,,,,,,,,,,,,,,,,,,,,,,,,,,,,,,,,,,,,,,,,,,,,,,,,,,,,,,,,,,,,,,,,,,,,,,,,
,,,,,,,6013013f04461412e683baef,23,2023-07-20_11h43.24.643,templeton2A_SD_practice,2020.2.10,Win32,60,,,,,,,,,,,,,,,,,,,,,,5.9266,5.980184159,,,,,,,,,,,,,,,,,,,,,,,,,,,,,,,,,,,,,,,,,,,,,,,,,,,,,,,,,,,,,,,,,,,,,,,,,,,,,,,,,,,,,,,,,,,
,,,,,,,6013013f04461412e683baef,23,2023-07-20_11h43.24.643,templeton2A_SD_practice,2020.2.10,Win32,60,,,,,,,,,,,,,,,,,,,,,,5.943,5.980184159,,,,,,,,,,,,,,,,,,,,,,,,,,,,,,,,,,,,,,,,,,,,,,,,,,,,,,,,,,,,,,,,,,,,,,,,,,,,,,,,,,,,,,,,,,,
,,,,,,,6013013f04461412e683baef,23,2023-07-20_11h43.24.643,templeton2A_SD_practice,2020.2.10,Win32,60,,,,,,,,,,,,,,,,,,,,,,5.96,5.980184159,,,,,,,,,,,,,,,,,,,,,,,,,,,,,,,,,,,,,,,,,,,,,,,,,,,,,,,,,,,,,,,,,,,,,,,,,,,,,,,,,,,,,,,,,,,
,,,,,,,6013013f04461412e683baef,23,2023-07-20_11h43.24.643,templeton2A_SD_practice,2020.2.10,Win32,60,,,,,,,,,,,,,,,,,,,,,,5.9766,5.980184159,,,,,,,,,,,,,,,,,,,,,,,,,,,,,,,,,,,,,,,,,,,,,,,,,,,,,,,,,,,,,,,,,,,,,,,,,,,,,,,,,,,,,,,,,,,
,,,,,,,6013013f04461412e683baef,23,2023-07-20_11h43.24.643,templeton2A_SD_practice,2020.2.10,Win32,60,,,,,,,,,,,,,,,,,,,,,,5.9931,5.980184159,,,,,,,,,,,,,,,,,,,,,,,,,,,,,,,,,,,,,,,,,,,,,,,,,,,,,,,,,,,,,,,,,,,,,,,,,,,,,,,,,,,,,,,,,,,
,,,,,,,6013013f04461412e683baef,23,2023-07-20_11h43.24.643,templeton2A_SD_practice,2020.2.10,Win32,60,,,,,,,,,,,,,,,,,,,,,,6.0099,5.980184159,,,,,,,,,,,,,,,,,,,,,,,,,,,,,,,,,,,,,,,,,,,,,,,,,,,,,,,,,,,,,,,,,,,,,,,,,,,,,,,,,,,,,,,,,,,
,,,,,,,6013013f04461412e683baef,23,2023-07-20_11h43.24.643,templeton2A_SD_practice,2020.2.10,Win32,60,,,,,,,,,,,,,,,,,,,,,,6.0265,5.980184159,,,,,,,,,,,,,,,,,,,,,,,,,,,,,,,,,,,,,,,,,,,,,,,,,,,,,,,,,,,,,,,,,,,,,,,,,,,,,,,,,,,,,,,,,,,
,,,,,,,6013013f04461412e683baef,23,2023-07-20_11h43.24.643,templeton2A_SD_practice,2020.2.10,Win32,60,,,,,,,,,,,,,,,,,,,,,,6.0427,5.980184159,,,,,,,,,,,,,,,,,,,,,,,,,,,,,,,,,,,,,,,,,,,,,,,,,,,,,,,,,,,,,,,,,,,,,,,,,,,,,,,,,,,,,,,,,,,
,,,,,,,6013013f04461412e683baef,23,2023-07-20_11h43.24.643,templeton2A_SD_practice,2020.2.10,Win32,60,,,,,,,,,,,,,,,,,,,,,,6.06,5.980184159,,,,,,,,,,,,,,,,,,,,,,,,,,,,,,,,,,,,,,,,,,,,,,,,,,,,,,,,,,,,,,,,,,,,,,,,,,,,,,,,,,,,,,,,,,,
,,,,,,,6013013f04461412e683baef,23,2023-07-20_11h43.24.643,templeton2A_SD_practice,2020.2.10,Win32,60,,,,,,,,,,,,,,,,,,,,,,6.0765,5.980184159,,,,,,,,,,,,,,,,,,,,,,,,,,,,,,,,,,,,,,,,,,,,,,,,,,,,,,,,,,,,,,,,,,,,,,,,,,,,,,,,,,,,,,,,,,,
,,,,,,,6013013f04461412e683baef,23,2023-07-20_11h43.24.643,templeton2A_SD_practice,2020.2.10,Win32,60,,,,,,,,,,,,,,,,,,,,,,6.0928,5.980184159,,,,,,,,,,,,,,,,,,,,,,,,,,,,,,,,,,,,,,,,,,,,,,,,,,,,,,,,,,,,,,,,,,,,,,,,,,,,,,,,,,,,,,,,,,,
,,,,,,,6013013f04461412e683baef,23,2023-07-20_11h43.24.643,templeton2A_SD_practice,2020.2.10,Win32,60,,,,,,,,,,,,,,,,,,,,,,6.1099,5.980184159,,,,,,,,,,,,,,,,,,,,,,,,,,,,,,,,,,,,,,,,,,,,,,,,,,,,,,,,,,,,,,,,,,,,,,,,,,,,,,,,,,,,,,,,,,,
,,,,,,,6013013f04461412e683baef,23,2023-07-20_11h43.24.643,templeton2A_SD_practice,2020.2.10,Win32,60,,,,,,,,,,,,,,,,,,,,,,6.1261,5.980184159,,,,,,,,,,,,,,,,,,,,,,,,,,,,,,,,,,,,,,,,,,,,,,,,,,,,,,,,,,,,,,,,,,,,,,,,,,,,,,,,,,,,,,,,,,,
,,,,,,,6013013f04461412e683baef,23,2023-07-20_11h43.24.643,templeton2A_SD_practice,2020.2.10,Win32,60,,,,,,,,,,,,,,,,,,,,,,6.1428,5.980184159,,,,,,,,,,,,,,,,,,,,,,,,,,,,,,,,,,,,,,,,,,,,,,,,,,,,,,,,,,,,,,,,,,,,,,,,,,,,,,,,,,,,,,,,,,,
