Desktop,trials_7.thisRepN,trials_7.thisTrialN,trials_7.thisN,trials_7.thisIndex,trials_7.ran,trials_7.order,participant,mapping,date,expName,psychopyVersion,OS,frameRate,CmUnit,trials_8.thisRepN,trials_8.thisTrialN,trials_8.thisN,trials_8.thisIndex,trials_8.ran,Cm,HeightCmAsEntered,HeightCmUsed,DistCmBasedOnHeight,trials_9.thisRepN,trials_9.thisTrialN,trials_9.thisN,trials_9.thisIndex,trials_9.ran,trials_9.order,screen_scale_start_time,scale_key_pressed,X Scale,Y Scale,screen_scale_end_time,timeInTrial,eccentricity,spacePressed,BlindSpotCm,BlindSpotBasedDistCm,DistUsedCm,begin_expt_instr_resp.keys,begin_expt_instr_resp.rt,trials_2.thisRepN,trials_2.thisTrialN,trials_2.thisN,trials_2.thisIndex,trials_2.ran,Used_image_1,Used_image_2,Used_image_3,Used_image_4,Used_image_5,Used_image_6,Used_image_7,Used_image_8,Unused_image_1,Unused_image_2,memDisplayOnTimePractice,mem_image_0_practice,mem_image_1_practice,mem_image_2_practice,mem_image_3_practice,mem_image_4_practice,mem_image_5_practice,mem_image_6_practice,mem_image_7_practice,retention_interval_practice,retro_0_post_1_practice,change_or_no_practice,cue_location_practice,mem_display_to_test_array_duration_s,mem_display_to_cue_duration_s,routine_duration_s,sd_practice_resp.keys,sd_practice_resp.rt,conf_practice_resp.keys,conf_practice_resp.rt,trials.thisRepN,trials.thisTrialN,trials.thisN,trials.thisIndex,trials.ran,trials_4.thisRepN,trials_4.thisTrialN,trials_4.thisN,trials_4.thisIndex,trials_4.ran,training_trial_index,memDisplayOnTimeTraining,mem_image_0_training,mem_image_1_training,mem_image_2_training,mem_image_3_training,mem_image_4_training,mem_image_5_training,mem_image_6_training,mem_image_7_training,retro_0_post_1_training,change_or_no_training,cue_location_training,test_image_0_training,test_image_1_training,test_image_2_training,test_image_3_training,test_image_4_training,test_image_5_training,test_image_6_training,test_image_7_training,consecutive_correct_retro_short,sd_training_resp.keys,sd_training_resp.rt,conf_training_resp.keys,conf_training_resp.rt,trials_10.thisRepN,trials_10.thisTrialN,trials_10.thisN,trials_10.thisIndex,trials_10.ran,short_interval_training_finished,training_trial_index_long_this_block,correct_retro_long_this_block,retro_trials_long_this_block,long_interval_block_finished,long_block_retro_acc,reached_criterion,run_out_of_trials,reachedFinish
1,99,0,99,0,1,98,610af0eb860dfb6aeb567a49,32,2023-07-20_20h37.54.234,templeton2A_SD_practice,2020.2.10,Win32,60,,,,,,,,,,,,,,,,,,,,,,,,,,,,,,,,,,,,,,,,,,,,,,,,,,,,,,,,,,,,,,,,,,,,,,,,,,,,,,,,,,,,,,,,,,,,,,,,,,,,,,,,,,,,,,,,,,
,,,,,,,610af0eb860dfb6aeb567a49,32,2023-07-20_20h37.54.234,templeton2A_SD_practice,2020.2.10,Win32,60,1,0,0,0,0,1,,,,,,,,,,,,,,,,,,,,,,,,,,,,,,,,,,,,,,,,,,,,,,,,,,,,,,,,,,,,,,,,,,,,,,,,,,,,,,,,,,,,,,,,,,,,,,,,,,,,,,,,,,,,
,,,,,,,610af0eb860dfb6aeb567a49,32,2023-07-20_20h37.54.234,templeton2A_SD_practice,2020.2.10,Win32,60,,,,,,,183,183,183,62.1067,99,0,99,0,1,98,,,,,,,,,,,,,,,,,,,,,,,,,,,,,,,,,,,,,,,,,,,,,,,,,,,,,,,,,,,,,,,,,,,,,,,,,,,,,,,,,,,,,,,,,,,,,,,,,,
,,,,,,,610af0eb860dfb6aeb567a49,32,2023-07-20_20h37.54.234,templeton2A_SD_practice,2020.2.10,Win32,60,,,,,,,,,,,,,,,,,68.5258,,,,,,,,,,,,,,,,,,,,,,,,,,,,,,,,,,,,,,,,,,,,,,,,,,,,,,,,,,,,,,,,,,,,,,,,,,,,,,,,,,,,,,,,,,,,,,,,,
,,,,,,,610af0eb860dfb6aeb567a49,32,2023-07-20_20h37.54.234,templeton2A_SD_practice,2020.2.10,Win32,60,,,,,,,,,,,,,,,,,,3,,,,,,,,,,,,,,,,,,,,,,,,,,,,,,,,,,,,,,,,,,,,,,,,,,,,,,,,,,,,,,,,,,,,,,,,,,,,,,,,,,,,,,,,,,,,,,,,
,,,,,,,610af0eb860dfb6aeb567a49,32,2023-07-20_20h37.54.234,templeton2A_SD_practice,2020.2.10,Win32,60,,,,,,,,,,,,,,,,,,3,,,,,,,,,,,,,,,,,,,,,,,,,,,,,,,,,,,,,,,,,,,,,,,,,,,,,,,,,,,,,,,,,,,,,,,,,,,,,,,,,,,,,,,,,,,,,,,,
,,,,,,,610af0eb860dfb6aeb567a49,32,2023-07-20_20h37.54.234,templeton2A_SD_practice,2020.2.10,Win32,60,,,,,,,,,,,,,,,,,,3,,,,,,,,,,,,,,,,,,,,,,,,,,,,,,,,,,,,,,,,,,,,,,,,,,,,,,,,,,,,,,,,,,,,,,,,,,,,,,,,,,,,,,,,,,,,,,,,
,,,,,,,610af0eb860dfb6aeb567a49,32,2023-07-20_20h37.54.234,templeton2A_SD_practice,2020.2.10,Win32,60,,,,,,,,,,,,,,,,,,3,,,,,,,,,,,,,,,,,,,,,,,,,,,,,,,,,,,,,,,,,,,,,,,,,,,,,,,,,,,,,,,,,,,,,,,,,,,,,,,,,,,,,,,,,,,,,,,,
,,,,,,,610af0eb860dfb6aeb567a49,32,2023-07-20_20h37.54.234,templeton2A_SD_practice,2020.2.10,Win32,60,,,,,,,,,,,,,,,,,,4,,,,,,,,,,,,,,,,,,,,,,,,,,,,,,,,,,,,,,,,,,,,,,,,,,,,,,,,,,,,,,,,,,,,,,,,,,,,,,,,,,,,,,,,,,,,,,,,
,,,,,,,610af0eb860dfb6aeb567a49,32,2023-07-20_20h37.54.234,templeton2A_SD_practice,2020.2.10,Win32,60,,,,,,,,,,,,,,,,,,4,,,,,,,,,,,,,,,,,,,,,,,,,,,,,,,,,,,,,,,,,,,,,,,,,,,,,,,,,,,,,,,,,,,,,,,,,,,,,,,,,,,,,,,,,,,,,,,,
,,,,,,,610af0eb860dfb6aeb567a49,32,2023-07-20_20h37.54.234,templeton2A_SD_practice,2020.2.10,Win32,60,,,,,,,,,,,,,,,,,,4,,,,,,,,,,,,,,,,,,,,,,,,,,,,,,,,,,,,,,,,,,,,,,,,,,,,,,,,,,,,,,,,,,,,,,,,,,,,,,,,,,,,,,,,,,,,,,,,
,,,,,,,610af0eb860dfb6aeb567a49,32,2023-07-20_20h37.54.234,templeton2A_SD_practice,2020.2.10,Win32,60,,,,,,,,,,,,,,,,,,4,,,,,,,,,,,,,,,,,,,,,,,,,,,,,,,,,,,,,,,,,,,,,,,,,,,,,,,,,,,,,,,,,,,,,,,,,,,,,,,,,,,,,,,,,,,,,,,,
,,,,,,,610af0eb860dfb6aeb567a49,32,2023-07-20_20h37.54.234,templeton2A_SD_practice,2020.2.10,Win32,60,,,,,,,,,,,,,,,,,,4,,,,,,,,,,,,,,,,,,,,,,,,,,,,,,,,,,,,,,,,,,,,,,,,,,,,,,,,,,,,,,,,,,,,,,,,,,,,,,,,,,,,,,,,,,,,,,,,
,,,,,,,610af0eb860dfb6aeb567a49,32,2023-07-20_20h37.54.234,templeton2A_SD_practice,2020.2.10,Win32,60,,,,,,,,,,,,,,,,,,2,,,,,,,,,,,,,,,,,,,,,,,,,,,,,,,,,,,,,,,,,,,,,,,,,,,,,,,,,,,,,,,,,,,,,,,,,,,,,,,,,,,,,,,,,,,,,,,,
,,,,,,,610af0eb860dfb6aeb567a49,32,2023-07-20_20h37.54.234,templeton2A_SD_practice,2020.2.10,Win32,60,,,,,,,,,,,,,,,,,,2,,,,,,,,,,,,,,,,,,,,,,,,,,,,,,,,,,,,,,,,,,,,,,,,,,,,,,,,,,,,,,,,,,,,,,,,,,,,,,,,,,,,,,,,,,,,,,,,
,,,,,,,610af0eb860dfb6aeb567a49,32,2023-07-20_20h37.54.234,templeton2A_SD_practice,2020.2.10,Win32,60,,,,,,,,,,,,,,,,,,2,,,,,,,,,,,,,,,,,,,,,,,,,,,,,,,,,,,,,,,,,,,,,,,,,,,,,,,,,,,,,,,,,,,,,,,,,,,,,,,,,,,,,,,,,,,,,,,,
,,,,,,,610af0eb860dfb6aeb567a49,32,2023-07-20_20h37.54.234,templeton2A_SD_practice,2020.2.10,Win32,60,,,,,,,,,,,,,,,,,,2,,,,,,,,,,,,,,,,,,,,,,,,,,,,,,,,,,,,,,,,,,,,,,,,,,,,,,,,,,,,,,,,,,,,,,,,,,,,,,,,,,,,,,,,,,,,,,,,
,,,,,,,610af0eb860dfb6aeb567a49,32,2023-07-20_20h37.54.234,templeton2A_SD_practice,2020.2.10,Win32,60,,,,,,,,,,,,,,,,,,2,,,,,,,,,,,,,,,,,,,,,,,,,,,,,,,,,,,,,,,,,,,,,,,,,,,,,,,,,,,,,,,,,,,,,,,,,,,,,,,,,,,,,,,,,,,,,,,,
,,,,,,,610af0eb860dfb6aeb567a49,32,2023-07-20_20h37.54.234,templeton2A_SD_practice,2020.2.10,Win32,60,,,,,,,,,,,,,,,,,,2,,,,,,,,,,,,,,,,,,,,,,,,,,,,,,,,,,,,,,,,,,,,,,,,,,,,,,,,,,,,,,,,,,,,,,,,,,,,,,,,,,,,,,,,,,,,,,,,
,,,,,,,610af0eb860dfb6aeb567a49,32,2023-07-20_20h37.54.234,templeton2A_SD_practice,2020.2.10,Win32,60,,,,,,,,,,,,,,,,,,2,,,,,,,,,,,,,,,,,,,,,,,,,,,,,,,,,,,,,,,,,,,,,,,,,,,,,,,,,,,,,,,,,,,,,,,,,,,,,,,,,,,,,,,,,,,,,,,,
,,,,,,,610af0eb860dfb6aeb567a49,32,2023-07-20_20h37.54.234,templeton2A_SD_practice,2020.2.10,Win32,60,,,,,,,,,,,,,,,,,,2,,,,,,,,,,,,,,,,,,,,,,,,,,,,,,,,,,,,,,,,,,,,,,,,,,,,,,,,,,,,,,,,,,,,,,,,,,,,,,,,,,,,,,,,,,,,,,,,
,,,,,,,610af0eb860dfb6aeb567a49,32,2023-07-20_20h37.54.234,templeton2A_SD_practice,2020.2.10,Win32,60,,,,,,,,,,,,,,,,,,2,,,,,,,,,,,,,,,,,,,,,,,,,,,,,,,,,,,,,,,,,,,,,,,,,,,,,,,,,,,,,,,,,,,,,,,,,,,,,,,,,,,,,,,,,,,,,,,,
,,,,,,,610af0eb860dfb6aeb567a49,32,2023-07-20_20h37.54.234,templeton2A_SD_practice,2020.2.10,Win32,60,,,,,,,,,,,,,,,,,,2,,,,,,,,,,,,,,,,,,,,,,,,,,,,,,,,,,,,,,,,,,,,,,,,,,,,,,,,,,,,,,,,,,,,,,,,,,,,,,,,,,,,,,,,,,,,,,,,
,,,,,,,610af0eb860dfb6aeb567a49,32,2023-07-20_20h37.54.234,templeton2A_SD_practice,2020.2.10,Win32,60,,,,,,,,,,,,,,,,,,2,,,,,,,,,,,,,,,,,,,,,,,,,,,,,,,,,,,,,,,,,,,,,,,,,,,,,,,,,,,,,,,,,,,,,,,,,,,,,,,,,,,,,,,,,,,,,,,,
,,,,,,,610af0eb860dfb6aeb567a49,32,2023-07-20_20h37.54.234,templeton2A_SD_practice,2020.2.10,Win32,60,,,,,,,,,,,,,,,,,,2,,,,,,,,,,,,,,,,,,,,,,,,,,,,,,,,,,,,,,,,,,,,,,,,,,,,,,,,,,,,,,,,,,,,,,,,,,,,,,,,,,,,,,,,,,,,,,,,
,,,,,,,610af0eb860dfb6aeb567a49,32,2023-07-20_20h37.54.234,templeton2A_SD_practice,2020.2.10,Win32,60,,,,,,,,,,,,,,,,,,2,,,,,,,,,,,,,,,,,,,,,,,,,,,,,,,,,,,,,,,,,,,,,,,,,,,,,,,,,,,,,,,,,,,,,,,,,,,,,,,,,,,,,,,,,,,,,,,,
,,,,,,,610af0eb860dfb6aeb567a49,32,2023-07-20_20h37.54.234,templeton2A_SD_practice,2020.2.10,Win32,60,,,,,,,,,,,,,,,,,,2,,,,,,,,,,,,,,,,,,,,,,,,,,,,,,,,,,,,,,,,,,,,,,,,,,,,,,,,,,,,,,,,,,,,,,,,,,,,,,,,,,,,,,,,,,,,,,,,
,,,,,,,610af0eb860dfb6aeb567a49,32,2023-07-20_20h37.54.234,templeton2A_SD_practice,2020.2.10,Win32,60,,,,,,,,,,,,,,,,,,2,,,,,,,,,,,,,,,,,,,,,,,,,,,,,,,,,,,,,,,,,,,,,,,,,,,,,,,,,,,,,,,,,,,,,,,,,,,,,,,,,,,,,,,,,,,,,,,,
,,,,,,,610af0eb860dfb6aeb567a49,32,2023-07-20_20h37.54.234,templeton2A_SD_practice,2020.2.10,Win32,60,,,,,,,,,,,,,,,,,,2,,,,,,,,,,,,,,,,,,,,,,,,,,,,,,,,,,,,,,,,,,,,,,,,,,,,,,,,,,,,,,,,,,,,,,,,,,,,,,,,,,,,,,,,,,,,,,,,
,,,,,,,610af0eb860dfb6aeb567a49,32,2023-07-20_20h37.54.234,templeton2A_SD_practice,2020.2.10,Win32,60,,,,,,,,,,,,,,,,,,2,,,,,,,,,,,,,,,,,,,,,,,,,,,,,,,,,,,,,,,,,,,,,,,,,,,,,,,,,,,,,,,,,,,,,,,,,,,,,,,,,,,,,,,,,,,,,,,,
,,,,,,,610af0eb860dfb6aeb567a49,32,2023-07-20_20h37.54.234,templeton2A_SD_practice,2020.2.10,Win32,60,,,,,,,,,,,,,,,,,,2,,,,,,,,,,,,,,,,,,,,,,,,,,,,,,,,,,,,,,,,,,,,,,,,,,,,,,,,,,,,,,,,,,,,,,,,,,,,,,,,,,,,,,,,,,,,,,,,
,,,,,,,610af0eb860dfb6aeb567a49,32,2023-07-20_20h37.54.234,templeton2A_SD_practice,2020.2.10,Win32,60,,,,,,,,,,,,,,,,,,2,,,,,,,,,,,,,,,,,,,,,,,,,,,,,,,,,,,,,,,,,,,,,,,,,,,,,,,,,,,,,,,,,,,,,,,,,,,,,,,,,,,,,,,,,,,,,,,,
,,,,,,,610af0eb860dfb6aeb567a49,32,2023-07-20_20h37.54.234,templeton2A_SD_practice,2020.2.10,Win32,60,,,,,,,,,,,,,,,,,,2,,,,,,,,,,,,,,,,,,,,,,,,,,,,,,,,,,,,,,,,,,,,,,,,,,,,,,,,,,,,,,,,,,,,,,,,,,,,,,,,,,,,,,,,,,,,,,,,
,,,,,,,610af0eb860dfb6aeb567a49,32,2023-07-20_20h37.54.234,templeton2A_SD_practice,2020.2.10,Win32,60,,,,,,,,,,,,,,,,,,2,,,,,,,,,,,,,,,,,,,,,,,,,,,,,,,,,,,,,,,,,,,,,,,,,,,,,,,,,,,,,,,,,,,,,,,,,,,,,,,,,,,,,,,,,,,,,,,,
,,,,,,,610af0eb860dfb6aeb567a49,32,2023-07-20_20h37.54.234,templeton2A_SD_practice,2020.2.10,Win32,60,,,,,,,,,,,,,,,,,,2,,,,,,,,,,,,,,,,,,,,,,,,,,,,,,,,,,,,,,,,,,,,,,,,,,,,,,,,,,,,,,,,,,,,,,,,,,,,,,,,,,,,,,,,,,,,,,,,
,,,,,,,610af0eb860dfb6aeb567a49,32,2023-07-20_20h37.54.234,templeton2A_SD_practice,2020.2.10,Win32,60,,,,,,,,,,,,,,,,,,2,,,,,,,,,,,,,,,,,,,,,,,,,,,,,,,,,,,,,,,,,,,,,,,,,,,,,,,,,,,,,,,,,,,,,,,,,,,,,,,,,,,,,,,,,,,,,,,,
,,,,,,,610af0eb860dfb6aeb567a49,32,2023-07-20_20h37.54.234,templeton2A_SD_practice,2020.2.10,Win32,60,,,,,,,,,,,,,,,,,,2,,,,,,,,,,,,,,,,,,,,,,,,,,,,,,,,,,,,,,,,,,,,,,,,,,,,,,,,,,,,,,,,,,,,,,,,,,,,,,,,,,,,,,,,,,,,,,,,
,,,,,,,610af0eb860dfb6aeb567a49,32,2023-07-20_20h37.54.234,templeton2A_SD_practice,2020.2.10,Win32,60,,,,,,,,,,,,,,,,,,2,,,,,,,,,,,,,,,,,,,,,,,,,,,,,,,,,,,,,,,,,,,,,,,,,,,,,,,,,,,,,,,,,,,,,,,,,,,,,,,,,,,,,,,,,,,,,,,,
,,,,,,,610af0eb860dfb6aeb567a49,32,2023-07-20_20h37.54.234,templeton2A_SD_practice,2020.2.10,Win32,60,,,,,,,,,,,,,,,,,,2,,,,,,,,,,,,,,,,,,,,,,,,,,,,,,,,,,,,,,,,,,,,,,,,,,,,,,,,,,,,,,,,,,,,,,,,,,,,,,,,,,,,,,,,,,,,,,,,
,,,,,,,610af0eb860dfb6aeb567a49,32,2023-07-20_20h37.54.234,templeton2A_SD_practice,2020.2.10,Win32,60,,,,,,,,,,,,,,,,,,2,,,,,,,,,,,,,,,,,,,,,,,,,,,,,,,,,,,,,,,,,,,,,,,,,,,,,,,,,,,,,,,,,,,,,,,,,,,,,,,,,,,,,,,,,,,,,,,,
,,,,,,,610af0eb860dfb6aeb567a49,32,2023-07-20_20h37.54.234,templeton2A_SD_practice,2020.2.10,Win32,60,,,,,,,,,,,,,,,,,,2,,,,,,,,,,,,,,,,,,,,,,,,,,,,,,,,,,,,,,,,,,,,,,,,,,,,,,,,,,,,,,,,,,,,,,,,,,,,,,,,,,,,,,,,,,,,,,,,
,,,,,,,610af0eb860dfb6aeb567a49,32,2023-07-20_20h37.54.234,templeton2A_SD_practice,2020.2.10,Win32,60,,,,,,,,,,,,,,,,,,2,,,,,,,,,,,,,,,,,,,,,,,,,,,,,,,,,,,,,,,,,,,,,,,,,,,,,,,,,,,,,,,,,,,,,,,,,,,,,,,,,,,,,,,,,,,,,,,,
,,,,,,,610af0eb860dfb6aeb567a49,32,2023-07-20_20h37.54.234,templeton2A_SD_practice,2020.2.10,Win32,60,,,,,,,,,,,,,,,,,,2,,,,,,,,,,,,,,,,,,,,,,,,,,,,,,,,,,,,,,,,,,,,,,,,,,,,,,,,,,,,,,,,,,,,,,,,,,,,,,,,,,,,,,,,,,,,,,,,
,,,,,,,610af0eb860dfb6aeb567a49,32,2023-07-20_20h37.54.234,templeton2A_SD_practice,2020.2.10,Win32,60,,,,,,,,,,,,,,,,,,2,,,,,,,,,,,,,,,,,,,,,,,,,,,,,,,,,,,,,,,,,,,,,,,,,,,,,,,,,,,,,,,,,,,,,,,,,,,,,,,,,,,,,,,,,,,,,,,,
,,,,,,,610af0eb860dfb6aeb567a49,32,2023-07-20_20h37.54.234,templeton2A_SD_practice,2020.2.10,Win32,60,,,,,,,,,,,,,,,,,,2,,,,,,,,,,,,,,,,,,,,,,,,,,,,,,,,,,,,,,,,,,,,,,,,,,,,,,,,,,,,,,,,,,,,,,,,,,,,,,,,,,,,,,,,,,,,,,,,
,,,,,,,610af0eb860dfb6aeb567a49,32,2023-07-20_20h37.54.234,templeton2A_SD_practice,2020.2.10,Win32,60,,,,,,,,,,,,,,,,,,2,,,,,,,,,,,,,,,,,,,,,,,,,,,,,,,,,,,,,,,,,,,,,,,,,,,,,,,,,,,,,,,,,,,,,,,,,,,,,,,,,,,,,,,,,,,,,,,,
,,,,,,,610af0eb860dfb6aeb567a49,32,2023-07-20_20h37.54.234,templeton2A_SD_practice,2020.2.10,Win32,60,,,,,,,,,,,,,,,,,,2,,,,,,,,,,,,,,,,,,,,,,,,,,,,,,,,,,,,,,,,,,,,,,,,,,,,,,,,,,,,,,,,,,,,,,,,,,,,,,,,,,,,,,,,,,,,,,,,
,,,,,,,610af0eb860dfb6aeb567a49,32,2023-07-20_20h37.54.234,templeton2A_SD_practice,2020.2.10,Win32,60,,,,,,,,,,,,,,,,,,2,,,,,,,,,,,,,,,,,,,,,,,,,,,,,,,,,,,,,,,,,,,,,,,,,,,,,,,,,,,,,,,,,,,,,,,,,,,,,,,,,,,,,,,,,,,,,,,,
,,,,,,,610af0eb860dfb6aeb567a49,32,2023-07-20_20h37.54.234,templeton2A_SD_practice,2020.2.10,Win32,60,,,,,,,,,,,,,,,,,,2,,,,,,,,,,,,,,,,,,,,,,,,,,,,,,,,,,,,,,,,,,,,,,,,,,,,,,,,,,,,,,,,,,,,,,,,,,,,,,,,,,,,,,,,,,,,,,,,
,,,,,,,610af0eb860dfb6aeb567a49,32,2023-07-20_20h37.54.234,templeton2A_SD_practice,2020.2.10,Win32,60,,,,,,,,,,,,,,,,,,2,,,,,,,,,,,,,,,,,,,,,,,,,,,,,,,,,,,,,,,,,,,,,,,,,,,,,,,,,,,,,,,,,,,,,,,,,,,,,,,,,,,,,,,,,,,,,,,,
,,,,,,,610af0eb860dfb6aeb567a49,32,2023-07-20_20h37.54.234,templeton2A_SD_practice,2020.2.10,Win32,60,,,,,,,,,,,,,,,,,,2,,,,,,,,,,,,,,,,,,,,,,,,,,,,,,,,,,,,,,,,,,,,,,,,,,,,,,,,,,,,,,,,,,,,,,,,,,,,,,,,,,,,,,,,,,,,,,,,
,,,,,,,610af0eb860dfb6aeb567a49,32,2023-07-20_20h37.54.234,templeton2A_SD_practice,2020.2.10,Win32,60,,,,,,,,,,,,,,,,,,4,,,,,,,,,,,,,,,,,,,,,,,,,,,,,,,,,,,,,,,,,,,,,,,,,,,,,,,,,,,,,,,,,,,,,,,,,,,,,,,,,,,,,,,,,,,,,,,,
,,,,,,,610af0eb860dfb6aeb567a49,32,2023-07-20_20h37.54.234,templeton2A_SD_practice,2020.2.10,Win32,60,,,,,,,,,,,,,,,,,,4,,,,,,,,,,,,,,,,,,,,,,,,,,,,,,,,,,,,,,,,,,,,,,,,,,,,,,,,,,,,,,,,,,,,,,,,,,,,,,,,,,,,,,,,,,,,,,,,
,,,,,,,610af0eb860dfb6aeb567a49,32,2023-07-20_20h37.54.234,templeton2A_SD_practice,2020.2.10,Win32,60,,,,,,,,,,,,,,,,,,4,,,,,,,,,,,,,,,,,,,,,,,,,,,,,,,,,,,,,,,,,,,,,,,,,,,,,,,,,,,,,,,,,,,,,,,,,,,,,,,,,,,,,,,,,,,,,,,,
,,,,,,,610af0eb860dfb6aeb567a49,32,2023-07-20_20h37.54.234,templeton2A_SD_practice,2020.2.10,Win32,60,,,,,,,,,,,,,,,,,,4,,,,,,,,,,,,,,,,,,,,,,,,,,,,,,,,,,,,,,,,,,,,,,,,,,,,,,,,,,,,,,,,,,,,,,,,,,,,,,,,,,,,,,,,,,,,,,,,
,,,,,,,610af0eb860dfb6aeb567a49,32,2023-07-20_20h37.54.234,templeton2A_SD_practice,2020.2.10,Win32,60,,,,,,,,,,,,,,,,,,4,,,,,,,,,,,,,,,,,,,,,,,,,,,,,,,,,,,,,,,,,,,,,,,,,,,,,,,,,,,,,,,,,,,,,,,,,,,,,,,,,,,,,,,,,,,,,,,,
,,,,,,,610af0eb860dfb6aeb567a49,32,2023-07-20_20h37.54.234,templeton2A_SD_practice,2020.2.10,Win32,60,,,,,,,,,,,,,,,,,,4,,,,,,,,,,,,,,,,,,,,,,,,,,,,,,,,,,,,,,,,,,,,,,,,,,,,,,,,,,,,,,,,,,,,,,,,,,,,,,,,,,,,,,,,,,,,,,,,
,,,,,,,610af0eb860dfb6aeb567a49,32,2023-07-20_20h37.54.234,templeton2A_SD_practice,2020.2.10,Win32,60,,,,,,,,,,,,,,,,,,4,,,,,,,,,,,,,,,,,,,,,,,,,,,,,,,,,,,,,,,,,,,,,,,,,,,,,,,,,,,,,,,,,,,,,,,,,,,,,,,,,,,,,,,,,,,,,,,,
,,,,,,,610af0eb860dfb6aeb567a49,32,2023-07-20_20h37.54.234,templeton2A_SD_practice,2020.2.10,Win32,60,,,,,,,,,,,,,,,,,,4,,,,,,,,,,,,,,,,,,,,,,,,,,,,,,,,,,,,,,,,,,,,,,,,,,,,,,,,,,,,,,,,,,,,,,,,,,,,,,,,,,,,,,,,,,,,,,,,
,,,,,,,610af0eb860dfb6aeb567a49,32,2023-07-20_20h37.54.234,templeton2A_SD_practice,2020.2.10,Win32,60,,,,,,,,,,,,,,,,,,4,,,,,,,,,,,,,,,,,,,,,,,,,,,,,,,,,,,,,,,,,,,,,,,,,,,,,,,,,,,,,,,,,,,,,,,,,,,,,,,,,,,,,,,,,,,,,,,,
,,,,,,,610af0eb860dfb6aeb567a49,32,2023-07-20_20h37.54.234,templeton2A_SD_practice,2020.2.10,Win32,60,,,,,,,,,,,,,,,,,,4,,,,,,,,,,,,,,,,,,,,,,,,,,,,,,,,,,,,,,,,,,,,,,,,,,,,,,,,,,,,,,,,,,,,,,,,,,,,,,,,,,,,,,,,,,,,,,,,
,,,,,,,610af0eb860dfb6aeb567a49,32,2023-07-20_20h37.54.234,templeton2A_SD_practice,2020.2.10,Win32,60,,,,,,,,,,,,,,,,,,4,,,,,,,,,,,,,,,,,,,,,,,,,,,,,,,,,,,,,,,,,,,,,,,,,,,,,,,,,,,,,,,,,,,,,,,,,,,,,,,,,,,,,,,,,,,,,,,,
,,,,,,,610af0eb860dfb6aeb567a49,32,2023-07-20_20h37.54.234,templeton2A_SD_practice,2020.2.10,Win32,60,,,,,,,,,,,,,,,,,,4,,,,,,,,,,,,,,,,,,,,,,,,,,,,,,,,,,,,,,,,,,,,,,,,,,,,,,,,,,,,,,,,,,,,,,,,,,,,,,,,,,,,,,,,,,,,,,,,
,,,,,,,610af0eb860dfb6aeb567a49,32,2023-07-20_20h37.54.234,templeton2A_SD_practice,2020.2.10,Win32,60,,,,,,,,,,,,,,,,,,4,,,,,,,,,,,,,,,,,,,,,,,,,,,,,,,,,,,,,,,,,,,,,,,,,,,,,,,,,,,,,,,,,,,,,,,,,,,,,,,,,,,,,,,,,,,,,,,,
,,,,,,,610af0eb860dfb6aeb567a49,32,2023-07-20_20h37.54.234,templeton2A_SD_practice,2020.2.10,Win32,60,,,,,,,,,,,,,,,,,,4,,,,,,,,,,,,,,,,,,,,,,,,,,,,,,,,,,,,,,,,,,,,,,,,,,,,,,,,,,,,,,,,,,,,,,,,,,,,,,,,,,,,,,,,,,,,,,,,
,,,,,,,610af0eb860dfb6aeb567a49,32,2023-07-20_20h37.54.234,templeton2A_SD_practice,2020.2.10,Win32,60,,,,,,,,,,,,,,,,,,4,,,,,,,,,,,,,,,,,,,,,,,,,,,,,,,,,,,,,,,,,,,,,,,,,,,,,,,,,,,,,,,,,,,,,,,,,,,,,,,,,,,,,,,,,,,,,,,,
,,,,,,,610af0eb860dfb6aeb567a49,32,2023-07-20_20h37.54.234,templeton2A_SD_practice,2020.2.10,Win32,60,,,,,,,,,,,,,,,,,,4,,,,,,,,,,,,,,,,,,,,,,,,,,,,,,,,,,,,,,,,,,,,,,,,,,,,,,,,,,,,,,,,,,,,,,,,,,,,,,,,,,,,,,,,,,,,,,,,
,,,,,,,610af0eb860dfb6aeb567a49,32,2023-07-20_20h37.54.234,templeton2A_SD_practice,2020.2.10,Win32,60,,,,,,,,,,,,,,,,,,4,,,,,,,,,,,,,,,,,,,,,,,,,,,,,,,,,,,,,,,,,,,,,,,,,,,,,,,,,,,,,,,,,,,,,,,,,,,,,,,,,,,,,,,,,,,,,,,,
,,,,,,,610af0eb860dfb6aeb567a49,32,2023-07-20_20h37.54.234,templeton2A_SD_practice,2020.2.10,Win32,60,,,,,,,,,,,,,,,,,,4,,,,,,,,,,,,,,,,,,,,,,,,,,,,,,,,,,,,,,,,,,,,,,,,,,,,,,,,,,,,,,,,,,,,,,,,,,,,,,,,,,,,,,,,,,,,,,,,
,,,,,,,610af0eb860dfb6aeb567a49,32,2023-07-20_20h37.54.234,templeton2A_SD_practice,2020.2.10,Win32,60,,,,,,,,,,,,,,,,,,4,,,,,,,,,,,,,,,,,,,,,,,,,,,,,,,,,,,,,,,,,,,,,,,,,,,,,,,,,,,,,,,,,,,,,,,,,,,,,,,,,,,,,,,,,,,,,,,,
,,,,,,,610af0eb860dfb6aeb567a49,32,2023-07-20_20h37.54.234,templeton2A_SD_practice,2020.2.10,Win32,60,,,,,,,,,,,,,,,,,,4,,,,,,,,,,,,,,,,,,,,,,,,,,,,,,,,,,,,,,,,,,,,,,,,,,,,,,,,,,,,,,,,,,,,,,,,,,,,,,,,,,,,,,,,,,,,,,,,
,,,,,,,610af0eb860dfb6aeb567a49,32,2023-07-20_20h37.54.234,templeton2A_SD_practice,2020.2.10,Win32,60,,,,,,,,,,,,,,,,,,4,,,,,,,,,,,,,,,,,,,,,,,,,,,,,,,,,,,,,,,,,,,,,,,,,,,,,,,,,,,,,,,,,,,,,,,,,,,,,,,,,,,,,,,,,,,,,,,,
,,,,,,,610af0eb860dfb6aeb567a49,32,2023-07-20_20h37.54.234,templeton2A_SD_practice,2020.2.10,Win32,60,,,,,,,,,,,,,,,,,,4,,,,,,,,,,,,,,,,,,,,,,,,,,,,,,,,,,,,,,,,,,,,,,,,,,,,,,,,,,,,,,,,,,,,,,,,,,,,,,,,,,,,,,,,,,,,,,,,
,,,,,,,610af0eb860dfb6aeb567a49,32,2023-07-20_20h37.54.234,templeton2A_SD_practice,2020.2.10,Win32,60,,,,,,,,,,,,,,,,,,4,,,,,,,,,,,,,,,,,,,,,,,,,,,,,,,,,,,,,,,,,,,,,,,,,,,,,,,,,,,,,,,,,,,,,,,,,,,,,,,,,,,,,,,,,,,,,,,,
,,,,,,,610af0eb860dfb6aeb567a49,32,2023-07-20_20h37.54.234,templeton2A_SD_practice,2020.2.10,Win32,60,,,,,,,,,,,,,,,,,,4,,,,,,,,,,,,,,,,,,,,,,,,,,,,,,,,,,,,,,,,,,,,,,,,,,,,,,,,,,,,,,,,,,,,,,,,,,,,,,,,,,,,,,,,,,,,,,,,
,,,,,,,610af0eb860dfb6aeb567a49,32,2023-07-20_20h37.54.234,templeton2A_SD_practice,2020.2.10,Win32,60,,,,,,,,,,,,,,,,,,3,,,,,,,,,,,,,,,,,,,,,,,,,,,,,,,,,,,,,,,,,,,,,,,,,,,,,,,,,,,,,,,,,,,,,,,,,,,,,,,,,,,,,,,,,,,,,,,,
,,,,,,,610af0eb860dfb6aeb567a49,32,2023-07-20_20h37.54.234,templeton2A_SD_practice,2020.2.10,Win32,60,,,,,,,,,,,,,,,,,,3,,,,,,,,,,,,,,,,,,,,,,,,,,,,,,,,,,,,,,,,,,,,,,,,,,,,,,,,,,,,,,,,,,,,,,,,,,,,,,,,,,,,,,,,,,,,,,,,
,,,,,,,610af0eb860dfb6aeb567a49,32,2023-07-20_20h37.54.234,templeton2A_SD_practice,2020.2.10,Win32,60,,,,,,,,,,,,,,,,,,1,,,,,,,,,,,,,,,,,,,,,,,,,,,,,,,,,,,,,,,,,,,,,,,,,,,,,,,,,,,,,,,,,,,,,,,,,,,,,,,,,,,,,,,,,,,,,,,,
,,,,,,,610af0eb860dfb6aeb567a49,32,2023-07-20_20h37.54.234,templeton2A_SD_practice,2020.2.10,Win32,60,,,,,,,,,,,,,,,,,,1,,,,,,,,,,,,,,,,,,,,,,,,,,,,,,,,,,,,,,,,,,,,,,,,,,,,,,,,,,,,,,,,,,,,,,,,,,,,,,,,,,,,,,,,,,,,,,,,
,,,,,,,610af0eb860dfb6aeb567a49,32,2023-07-20_20h37.54.234,templeton2A_SD_practice,2020.2.10,Win32,60,,,,,,,,,,,,,,,,,,1,,,,,,,,,,,,,,,,,,,,,,,,,,,,,,,,,,,,,,,,,,,,,,,,,,,,,,,,,,,,,,,,,,,,,,,,,,,,,,,,,,,,,,,,,,,,,,,,
,,,,,,,610af0eb860dfb6aeb567a49,32,2023-07-20_20h37.54.234,templeton2A_SD_practice,2020.2.10,Win32,60,,,,,,,,,,,,,,,,,,1,,,,,,,,,,,,,,,,,,,,,,,,,,,,,,,,,,,,,,,,,,,,,,,,,,,,,,,,,,,,,,,,,,,,,,,,,,,,,,,,,,,,,,,,,,,,,,,,
,,,,,,,610af0eb860dfb6aeb567a49,32,2023-07-20_20h37.54.234,templeton2A_SD_practice,2020.2.10,Win32,60,,,,,,,,,,,,,,,,,,1,,,,,,,,,,,,,,,,,,,,,,,,,,,,,,,,,,,,,,,,,,,,,,,,,,,,,,,,,,,,,,,,,,,,,,,,,,,,,,,,,,,,,,,,,,,,,,,,
,,,,,,,610af0eb860dfb6aeb567a49,32,2023-07-20_20h37.54.234,templeton2A_SD_practice,2020.2.10,Win32,60,,,,,,,,,,,,,,,,,,1,,,,,,,,,,,,,,,,,,,,,,,,,,,,,,,,,,,,,,,,,,,,,,,,,,,,,,,,,,,,,,,,,,,,,,,,,,,,,,,,,,,,,,,,,,,,,,,,
,,,,,,,610af0eb860dfb6aeb567a49,32,2023-07-20_20h37.54.234,templeton2A_SD_practice,2020.2.10,Win32,60,,,,,,,,,,,,,,,,,,2,,,,,,,,,,,,,,,,,,,,,,,,,,,,,,,,,,,,,,,,,,,,,,,,,,,,,,,,,,,,,,,,,,,,,,,,,,,,,,,,,,,,,,,,,,,,,,,,
,,,,,,,610af0eb860dfb6aeb567a49,32,2023-07-20_20h37.54.234,templeton2A_SD_practice,2020.2.10,Win32,60,,,,,,,,,,,,,,,,,,2,,,,,,,,,,,,,,,,,,,,,,,,,,,,,,,,,,,,,,,,,,,,,,,,,,,,,,,,,,,,,,,,,,,,,,,,,,,,,,,,,,,,,,,,,,,,,,,,
,,,,,,,610af0eb860dfb6aeb567a49,32,2023-07-20_20h37.54.234,templeton2A_SD_practice,2020.2.10,Win32,60,,,,,,,,,,,,,,,,,,2,,,,,,,,,,,,,,,,,,,,,,,,,,,,,,,,,,,,,,,,,,,,,,,,,,,,,,,,,,,,,,,,,,,,,,,,,,,,,,,,,,,,,,,,,,,,,,,,
,,,,,,,610af0eb860dfb6aeb567a49,32,2023-07-20_20h37.54.234,templeton2A_SD_practice,2020.2.10,Win32,60,,,,,,,,,,,,,,,,,,2,,,,,,,,,,,,,,,,,,,,,,,,,,,,,,,,,,,,,,,,,,,,,,,,,,,,,,,,,,,,,,,,,,,,,,,,,,,,,,,,,,,,,,,,,,,,,,,,
,,,,,,,610af0eb860dfb6aeb567a49,32,2023-07-20_20h37.54.234,templeton2A_SD_practice,2020.2.10,Win32,60,,,,,,,,,,,,,,,,,,2,,,,,,,,,,,,,,,,,,,,,,,,,,,,,,,,,,,,,,,,,,,,,,,,,,,,,,,,,,,,,,,,,,,,,,,,,,,,,,,,,,,,,,,,,,,,,,,,
,,,,,,,610af0eb860dfb6aeb567a49,32,2023-07-20_20h37.54.234,templeton2A_SD_practice,2020.2.10,Win32,60,,,,,,,,,,,,,,,,,,4,,,,,,,,,,,,,,,,,,,,,,,,,,,,,,,,,,,,,,,,,,,,,,,,,,,,,,,,,,,,,,,,,,,,,,,,,,,,,,,,,,,,,,,,,,,,,,,,
,,,,,,,610af0eb860dfb6aeb567a49,32,2023-07-20_20h37.54.234,templeton2A_SD_practice,2020.2.10,Win32,60,,,,,,,,,,,,,,,,,,3,,,,,,,,,,,,,,,,,,,,,,,,,,,,,,,,,,,,,,,,,,,,,,,,,,,,,,,,,,,,,,,,,,,,,,,,,,,,,,,,,,,,,,,,,,,,,,,,
,,,,,,,610af0eb860dfb6aeb567a49,32,2023-07-20_20h37.54.234,templeton2A_SD_practice,2020.2.10,Win32,60,,,,,,,,,,,,,,,,,,3,,,,,,,,,,,,,,,,,,,,,,,,,,,,,,,,,,,,,,,,,,,,,,,,,,,,,,,,,,,,,,,,,,,,,,,,,,,,,,,,,,,,,,,,,,,,,,,,
,,,,,,,610af0eb860dfb6aeb567a49,32,2023-07-20_20h37.54.234,templeton2A_SD_practice,2020.2.10,Win32,60,,,,,,,,,,,,,,,,,,3,,,,,,,,,,,,,,,,,,,,,,,,,,,,,,,,,,,,,,,,,,,,,,,,,,,,,,,,,,,,,,,,,,,,,,,,,,,,,,,,,,,,,,,,,,,,,,,,
,,,,,,,610af0eb860dfb6aeb567a49,32,2023-07-20_20h37.54.234,templeton2A_SD_practice,2020.2.10,Win32,60,,,,,,,,,,,,,,,,,,3,,,,,,,,,,,,,,,,,,,,,,,,,,,,,,,,,,,,,,,,,,,,,,,,,,,,,,,,,,,,,,,,,,,,,,,,,,,,,,,,,,,,,,,,,,,,,,,,
,,,,,,,610af0eb860dfb6aeb567a49,32,2023-07-20_20h37.54.234,templeton2A_SD_practice,2020.2.10,Win32,60,,,,,,,,,,,,,,,,,,3,,,,,,,,,,,,,,,,,,,,,,,,,,,,,,,,,,,,,,,,,,,,,,,,,,,,,,,,,,,,,,,,,,,,,,,,,,,,,,,,,,,,,,,,,,,,,,,,
,,,,,,,610af0eb860dfb6aeb567a49,32,2023-07-20_20h37.54.234,templeton2A_SD_practice,2020.2.10,Win32,60,,,,,,,,,,,,,,,,,,3,,,,,,,,,,,,,,,,,,,,,,,,,,,,,,,,,,,,,,,,,,,,,,,,,,,,,,,,,,,,,,,,,,,,,,,,,,,,,,,,,,,,,,,,,,,,,,,,
,,,,,,,610af0eb860dfb6aeb567a49,32,2023-07-20_20h37.54.234,templeton2A_SD_practice,2020.2.10,Win32,60,,,,,,,,,,,,,,,,,,3,,,,,,,,,,,,,,,,,,,,,,,,,,,,,,,,,,,,,,,,,,,,,,,,,,,,,,,,,,,,,,,,,,,,,,,,,,,,,,,,,,,,,,,,,,,,,,,,
,,,,,,,610af0eb860dfb6aeb567a49,32,2023-07-20_20h37.54.234,templeton2A_SD_practice,2020.2.10,Win32,60,,,,,,,,,,,,,,,,,,3,,,,,,,,,,,,,,,,,,,,,,,,,,,,,,,,,,,,,,,,,,,,,,,,,,,,,,,,,,,,,,,,,,,,,,,,,,,,,,,,,,,,,,,,,,,,,,,,
,,,,,,,610af0eb860dfb6aeb567a49,32,2023-07-20_20h37.54.234,templeton2A_SD_practice,2020.2.10,Win32,60,,,,,,,,,,,,,,,,,,3,,,,,,,,,,,,,,,,,,,,,,,,,,,,,,,,,,,,,,,,,,,,,,,,,,,,,,,,,,,,,,,,,,,,,,,,,,,,,,,,,,,,,,,,,,,,,,,,
,,,,,,,610af0eb860dfb6aeb567a49,32,2023-07-20_20h37.54.234,templeton2A_SD_practice,2020.2.10,Win32,60,,,,,,,,,,,,,,,,,,3,,,,,,,,,,,,,,,,,,,,,,,,,,,,,,,,,,,,,,,,,,,,,,,,,,,,,,,,,,,,,,,,,,,,,,,,,,,,,,,,,,,,,,,,,,,,,,,,
,,,,,,,610af0eb860dfb6aeb567a49,32,2023-07-20_20h37.54.234,templeton2A_SD_practice,2020.2.10,Win32,60,,,,,,,,,,,,,,,,,,3,,,,,,,,,,,,,,,,,,,,,,,,,,,,,,,,,,,,,,,,,,,,,,,,,,,,,,,,,,,,,,,,,,,,,,,,,,,,,,,,,,,,,,,,,,,,,,,,
,,,,,,,610af0eb860dfb6aeb567a49,32,2023-07-20_20h37.54.234,templeton2A_SD_practice,2020.2.10,Win32,60,,,,,,,,,,,,,,,,,,3,,,,,,,,,,,,,,,,,,,,,,,,,,,,,,,,,,,,,,,,,,,,,,,,,,,,,,,,,,,,,,,,,,,,,,,,,,,,,,,,,,,,,,,,,,,,,,,,
,,,,,,,610af0eb860dfb6aeb567a49,32,2023-07-20_20h37.54.234,templeton2A_SD_practice,2020.2.10,Win32,60,,,,,,,,,,,,,,,,,,3,,,,,,,,,,,,,,,,,,,,,,,,,,,,,,,,,,,,,,,,,,,,,,,,,,,,,,,,,,,,,,,,,,,,,,,,,,,,,,,,,,,,,,,,,,,,,,,,
,,,,,,,610af0eb860dfb6aeb567a49,32,2023-07-20_20h37.54.234,templeton2A_SD_practice,2020.2.10,Win32,60,,,,,,,,,,,,,,,,,,3,,,,,,,,,,,,,,,,,,,,,,,,,,,,,,,,,,,,,,,,,,,,,,,,,,,,,,,,,,,,,,,,,,,,,,,,,,,,,,,,,,,,,,,,,,,,,,,,
,,,,,,,610af0eb860dfb6aeb567a49,32,2023-07-20_20h37.54.234,templeton2A_SD_practice,2020.2.10,Win32,60,,,,,,,,,,,,,,,,,,3,,,,,,,,,,,,,,,,,,,,,,,,,,,,,,,,,,,,,,,,,,,,,,,,,,,,,,,,,,,,,,,,,,,,,,,,,,,,,,,,,,,,,,,,,,,,,,,,
,,,,,,,610af0eb860dfb6aeb567a49,32,2023-07-20_20h37.54.234,templeton2A_SD_practice,2020.2.10,Win32,60,,,,,,,,,,,,,,,,,,3,,,,,,,,,,,,,,,,,,,,,,,,,,,,,,,,,,,,,,,,,,,,,,,,,,,,,,,,,,,,,,,,,,,,,,,,,,,,,,,,,,,,,,,,,,,,,,,,
,,,,,,,610af0eb860dfb6aeb567a49,32,2023-07-20_20h37.54.234,templeton2A_SD_practice,2020.2.10,Win32,60,,,,,,,,,,,,,,,,,,3,,,,,,,,,,,,,,,,,,,,,,,,,,,,,,,,,,,,,,,,,,,,,,,,,,,,,,,,,,,,,,,,,,,,,,,,,,,,,,,,,,,,,,,,,,,,,,,,
,,,,,,,610af0eb860dfb6aeb567a49,32,2023-07-20_20h37.54.234,templeton2A_SD_practice,2020.2.10,Win32,60,,,,,,,,,,,,,,,,,,3,,,,,,,,,,,,,,,,,,,,,,,,,,,,,,,,,,,,,,,,,,,,,,,,,,,,,,,,,,,,,,,,,,,,,,,,,,,,,,,,,,,,,,,,,,,,,,,,
,,,,,,,610af0eb860dfb6aeb567a49,32,2023-07-20_20h37.54.234,templeton2A_SD_practice,2020.2.10,Win32,60,,,,,,,,,,,,,,,,,,3,,,,,,,,,,,,,,,,,,,,,,,,,,,,,,,,,,,,,,,,,,,,,,,,,,,,,,,,,,,,,,,,,,,,,,,,,,,,,,,,,,,,,,,,,,,,,,,,
,,,,,,,610af0eb860dfb6aeb567a49,32,2023-07-20_20h37.54.234,templeton2A_SD_practice,2020.2.10,Win32,60,,,,,,,,,,,,,,,,,,3,,,,,,,,,,,,,,,,,,,,,,,,,,,,,,,,,,,,,,,,,,,,,,,,,,,,,,,,,,,,,,,,,,,,,,,,,,,,,,,,,,,,,,,,,,,,,,,,
,,,,,,,610af0eb860dfb6aeb567a49,32,2023-07-20_20h37.54.234,templeton2A_SD_practice,2020.2.10,Win32,60,,,,,,,,,,,,,,,,,,3,,,,,,,,,,,,,,,,,,,,,,,,,,,,,,,,,,,,,,,,,,,,,,,,,,,,,,,,,,,,,,,,,,,,,,,,,,,,,,,,,,,,,,,,,,,,,,,,
,,,,,,,610af0eb860dfb6aeb567a49,32,2023-07-20_20h37.54.234,templeton2A_SD_practice,2020.2.10,Win32,60,,,,,,,,,,,,,,,,,,3,,,,,,,,,,,,,,,,,,,,,,,,,,,,,,,,,,,,,,,,,,,,,,,,,,,,,,,,,,,,,,,,,,,,,,,,,,,,,,,,,,,,,,,,,,,,,,,,
,,,,,,,610af0eb860dfb6aeb567a49,32,2023-07-20_20h37.54.234,templeton2A_SD_practice,2020.2.10,Win32,60,,,,,,,,,,,,,,,,,,3,,,,,,,,,,,,,,,,,,,,,,,,,,,,,,,,,,,,,,,,,,,,,,,,,,,,,,,,,,,,,,,,,,,,,,,,,,,,,,,,,,,,,,,,,,,,,,,,
,,,,,,,610af0eb860dfb6aeb567a49,32,2023-07-20_20h37.54.234,templeton2A_SD_practice,2020.2.10,Win32,60,,,,,,,,,,,,,,,,,,3,,,,,,,,,,,,,,,,,,,,,,,,,,,,,,,,,,,,,,,,,,,,,,,,,,,,,,,,,,,,,,,,,,,,,,,,,,,,,,,,,,,,,,,,,,,,,,,,
,,,,,,,610af0eb860dfb6aeb567a49,32,2023-07-20_20h37.54.234,templeton2A_SD_practice,2020.2.10,Win32,60,,,,,,,,,,,,,,,,,,3,,,,,,,,,,,,,,,,,,,,,,,,,,,,,,,,,,,,,,,,,,,,,,,,,,,,,,,,,,,,,,,,,,,,,,,,,,,,,,,,,,,,,,,,,,,,,,,,
,,,,,,,610af0eb860dfb6aeb567a49,32,2023-07-20_20h37.54.234,templeton2A_SD_practice,2020.2.10,Win32,60,,,,,,,,,,,,,,,,,,3,,,,,,,,,,,,,,,,,,,,,,,,,,,,,,,,,,,,,,,,,,,,,,,,,,,,,,,,,,,,,,,,,,,,,,,,,,,,,,,,,,,,,,,,,,,,,,,,
,,,,,,,610af0eb860dfb6aeb567a49,32,2023-07-20_20h37.54.234,templeton2A_SD_practice,2020.2.10,Win32,60,,,,,,,,,,,,,,,,,,3,,,,,,,,,,,,,,,,,,,,,,,,,,,,,,,,,,,,,,,,,,,,,,,,,,,,,,,,,,,,,,,,,,,,,,,,,,,,,,,,,,,,,,,,,,,,,,,,
,,,,,,,610af0eb860dfb6aeb567a49,32,2023-07-20_20h37.54.234,templeton2A_SD_practice,2020.2.10,Win32,60,,,,,,,,,,,,,,,,,,3,,,,,,,,,,,,,,,,,,,,,,,,,,,,,,,,,,,,,,,,,,,,,,,,,,,,,,,,,,,,,,,,,,,,,,,,,,,,,,,,,,,,,,,,,,,,,,,,
,,,,,,,610af0eb860dfb6aeb567a49,32,2023-07-20_20h37.54.234,templeton2A_SD_practice,2020.2.10,Win32,60,,,,,,,,,,,,,,,,,,3,,,,,,,,,,,,,,,,,,,,,,,,,,,,,,,,,,,,,,,,,,,,,,,,,,,,,,,,,,,,,,,,,,,,,,,,,,,,,,,,,,,,,,,,,,,,,,,,
,,,,,,,610af0eb860dfb6aeb567a49,32,2023-07-20_20h37.54.234,templeton2A_SD_practice,2020.2.10,Win32,60,,,,,,,,,,,,,,,,,,3,,,,,,,,,,,,,,,,,,,,,,,,,,,,,,,,,,,,,,,,,,,,,,,,,,,,,,,,,,,,,,,,,,,,,,,,,,,,,,,,,,,,,,,,,,,,,,,,
,,,,,,,610af0eb860dfb6aeb567a49,32,2023-07-20_20h37.54.234,templeton2A_SD_practice,2020.2.10,Win32,60,,,,,,,,,,,,,,,,,,3,,,,,,,,,,,,,,,,,,,,,,,,,,,,,,,,,,,,,,,,,,,,,,,,,,,,,,,,,,,,,,,,,,,,,,,,,,,,,,,,,,,,,,,,,,,,,,,,
,,,,,,,610af0eb860dfb6aeb567a49,32,2023-07-20_20h37.54.234,templeton2A_SD_practice,2020.2.10,Win32,60,,,,,,,,,,,,,,,,,,3,,,,,,,,,,,,,,,,,,,,,,,,,,,,,,,,,,,,,,,,,,,,,,,,,,,,,,,,,,,,,,,,,,,,,,,,,,,,,,,,,,,,,,,,,,,,,,,,
,,,,,,,610af0eb860dfb6aeb567a49,32,2023-07-20_20h37.54.234,templeton2A_SD_practice,2020.2.10,Win32,60,,,,,,,,,,,,,,,,,,3,,,,,,,,,,,,,,,,,,,,,,,,,,,,,,,,,,,,,,,,,,,,,,,,,,,,,,,,,,,,,,,,,,,,,,,,,,,,,,,,,,,,,,,,,,,,,,,,
,,,,,,,610af0eb860dfb6aeb567a49,32,2023-07-20_20h37.54.234,templeton2A_SD_practice,2020.2.10,Win32,60,,,,,,,,,,,,,,,,,,3,,,,,,,,,,,,,,,,,,,,,,,,,,,,,,,,,,,,,,,,,,,,,,,,,,,,,,,,,,,,,,,,,,,,,,,,,,,,,,,,,,,,,,,,,,,,,,,,
,,,,,,,610af0eb860dfb6aeb567a49,32,2023-07-20_20h37.54.234,templeton2A_SD_practice,2020.2.10,Win32,60,,,,,,,,,,,,,,,,,,3,,,,,,,,,,,,,,,,,,,,,,,,,,,,,,,,,,,,,,,,,,,,,,,,,,,,,,,,,,,,,,,,,,,,,,,,,,,,,,,,,,,,,,,,,,,,,,,,
,,,,,,,610af0eb860dfb6aeb567a49,32,2023-07-20_20h37.54.234,templeton2A_SD_practice,2020.2.10,Win32,60,,,,,,,,,,,,,,,,,,3,,,,,,,,,,,,,,,,,,,,,,,,,,,,,,,,,,,,,,,,,,,,,,,,,,,,,,,,,,,,,,,,,,,,,,,,,,,,,,,,,,,,,,,,,,,,,,,,
,,,,,,,610af0eb860dfb6aeb567a49,32,2023-07-20_20h37.54.234,templeton2A_SD_practice,2020.2.10,Win32,60,,,,,,,,,,,,,,,,,,4,,,,,,,,,,,,,,,,,,,,,,,,,,,,,,,,,,,,,,,,,,,,,,,,,,,,,,,,,,,,,,,,,,,,,,,,,,,,,,,,,,,,,,,,,,,,,,,,
,,,,,,,610af0eb860dfb6aeb567a49,32,2023-07-20_20h37.54.234,templeton2A_SD_practice,2020.2.10,Win32,60,,,,,,,,,,,,,,,,,,4,,,,,,,,,,,,,,,,,,,,,,,,,,,,,,,,,,,,,,,,,,,,,,,,,,,,,,,,,,,,,,,,,,,,,,,,,,,,,,,,,,,,,,,,,,,,,,,,
,,,,,,,610af0eb860dfb6aeb567a49,32,2023-07-20_20h37.54.234,templeton2A_SD_practice,2020.2.10,Win32,60,,,,,,,,,,,,,,,,,,4,,,,,,,,,,,,,,,,,,,,,,,,,,,,,,,,,,,,,,,,,,,,,,,,,,,,,,,,,,,,,,,,,,,,,,,,,,,,,,,,,,,,,,,,,,,,,,,,
,,,,,,,610af0eb860dfb6aeb567a49,32,2023-07-20_20h37.54.234,templeton2A_SD_practice,2020.2.10,Win32,60,,,,,,,,,,,,,,,,,,4,,,,,,,,,,,,,,,,,,,,,,,,,,,,,,,,,,,,,,,,,,,,,,,,,,,,,,,,,,,,,,,,,,,,,,,,,,,,,,,,,,,,,,,,,,,,,,,,
,,,,,,,610af0eb860dfb6aeb567a49,32,2023-07-20_20h37.54.234,templeton2A_SD_practice,2020.2.10,Win32,60,,,,,,,,,,,,,,,,,,4,,,,,,,,,,,,,,,,,,,,,,,,,,,,,,,,,,,,,,,,,,,,,,,,,,,,,,,,,,,,,,,,,,,,,,,,,,,,,,,,,,,,,,,,,,,,,,,,
,,,,,,,610af0eb860dfb6aeb567a49,32,2023-07-20_20h37.54.234,templeton2A_SD_practice,2020.2.10,Win32,60,,,,,,,,,,,,,,,,,,4,,,,,,,,,,,,,,,,,,,,,,,,,,,,,,,,,,,,,,,,,,,,,,,,,,,,,,,,,,,,,,,,,,,,,,,,,,,,,,,,,,,,,,,,,,,,,,,,
,,,,,,,610af0eb860dfb6aeb567a49,32,2023-07-20_20h37.54.234,templeton2A_SD_practice,2020.2.10,Win32,60,,,,,,,,,,,,,,,,,,4,,,,,,,,,,,,,,,,,,,,,,,,,,,,,,,,,,,,,,,,,,,,,,,,,,,,,,,,,,,,,,,,,,,,,,,,,,,,,,,,,,,,,,,,,,,,,,,,
,,,,,,,610af0eb860dfb6aeb567a49,32,2023-07-20_20h37.54.234,templeton2A_SD_practice,2020.2.10,Win32,60,,,,,,,,,,,,,,,,,,4,,,,,,,,,,,,,,,,,,,,,,,,,,,,,,,,,,,,,,,,,,,,,,,,,,,,,,,,,,,,,,,,,,,,,,,,,,,,,,,,,,,,,,,,,,,,,,,,
,,,,,,,610af0eb860dfb6aeb567a49,32,2023-07-20_20h37.54.234,templeton2A_SD_practice,2020.2.10,Win32,60,,,,,,,,,,,,,,,,,,4,,,,,,,,,,,,,,,,,,,,,,,,,,,,,,,,,,,,,,,,,,,,,,,,,,,,,,,,,,,,,,,,,,,,,,,,,,,,,,,,,,,,,,,,,,,,,,,,
,,,,,,,610af0eb860dfb6aeb567a49,32,2023-07-20_20h37.54.234,templeton2A_SD_practice,2020.2.10,Win32,60,,,,,,,,,,,,,,,,,,4,,,,,,,,,,,,,,,,,,,,,,,,,,,,,,,,,,,,,,,,,,,,,,,,,,,,,,,,,,,,,,,,,,,,,,,,,,,,,,,,,,,,,,,,,,,,,,,,
,,,,,,,610af0eb860dfb6aeb567a49,32,2023-07-20_20h37.54.234,templeton2A_SD_practice,2020.2.10,Win32,60,,,,,,,,,,,,,,,,,,4,,,,,,,,,,,,,,,,,,,,,,,,,,,,,,,,,,,,,,,,,,,,,,,,,,,,,,,,,,,,,,,,,,,,,,,,,,,,,,,,,,,,,,,,,,,,,,,,
,,,,,,,610af0eb860dfb6aeb567a49,32,2023-07-20_20h37.54.234,templeton2A_SD_practice,2020.2.10,Win32,60,,,,,,,,,,,,,,,,,,4,,,,,,,,,,,,,,,,,,,,,,,,,,,,,,,,,,,,,,,,,,,,,,,,,,,,,,,,,,,,,,,,,,,,,,,,,,,,,,,,,,,,,,,,,,,,,,,,
,,,,,,,610af0eb860dfb6aeb567a49,32,2023-07-20_20h37.54.234,templeton2A_SD_practice,2020.2.10,Win32,60,,,,,,,,,,,,,,,,,,4,,,,,,,,,,,,,,,,,,,,,,,,,,,,,,,,,,,,,,,,,,,,,,,,,,,,,,,,,,,,,,,,,,,,,,,,,,,,,,,,,,,,,,,,,,,,,,,,
,,,,,,,610af0eb860dfb6aeb567a49,32,2023-07-20_20h37.54.234,templeton2A_SD_practice,2020.2.10,Win32,60,,,,,,,,,,,,,,,,,,4,,,,,,,,,,,,,,,,,,,,,,,,,,,,,,,,,,,,,,,,,,,,,,,,,,,,,,,,,,,,,,,,,,,,,,,,,,,,,,,,,,,,,,,,,,,,,,,,
,,,,,,,610af0eb860dfb6aeb567a49,32,2023-07-20_20h37.54.234,templeton2A_SD_practice,2020.2.10,Win32,60,,,,,,,,,,,,,,,,,,4,,,,,,,,,,,,,,,,,,,,,,,,,,,,,,,,,,,,,,,,,,,,,,,,,,,,,,,,,,,,,,,,,,,,,,,,,,,,,,,,,,,,,,,,,,,,,,,,
,,,,,,,610af0eb860dfb6aeb567a49,32,2023-07-20_20h37.54.234,templeton2A_SD_practice,2020.2.10,Win32,60,,,,,,,,,,,,,,,,,,4,,,,,,,,,,,,,,,,,,,,,,,,,,,,,,,,,,,,,,,,,,,,,,,,,,,,,,,,,,,,,,,,,,,,,,,,,,,,,,,,,,,,,,,,,,,,,,,,
,,,,,,,610af0eb860dfb6aeb567a49,32,2023-07-20_20h37.54.234,templeton2A_SD_practice,2020.2.10,Win32,60,,,,,,,,,,,,,,,,,,4,,,,,,,,,,,,,,,,,,,,,,,,,,,,,,,,,,,,,,,,,,,,,,,,,,,,,,,,,,,,,,,,,,,,,,,,,,,,,,,,,,,,,,,,,,,,,,,,
,,,,,,,610af0eb860dfb6aeb567a49,32,2023-07-20_20h37.54.234,templeton2A_SD_practice,2020.2.10,Win32,60,,,,,,,,,,,,,,,,,,4,,,,,,,,,,,,,,,,,,,,,,,,,,,,,,,,,,,,,,,,,,,,,,,,,,,,,,,,,,,,,,,,,,,,,,,,,,,,,,,,,,,,,,,,,,,,,,,,
,,,,,,,610af0eb860dfb6aeb567a49,32,2023-07-20_20h37.54.234,templeton2A_SD_practice,2020.2.10,Win32,60,,,,,,,,,,,,,,,,,,4,,,,,,,,,,,,,,,,,,,,,,,,,,,,,,,,,,,,,,,,,,,,,,,,,,,,,,,,,,,,,,,,,,,,,,,,,,,,,,,,,,,,,,,,,,,,,,,,
,,,,,,,610af0eb860dfb6aeb567a49,32,2023-07-20_20h37.54.234,templeton2A_SD_practice,2020.2.10,Win32,60,,,,,,,,,,,,,,,,,,4,,,,,,,,,,,,,,,,,,,,,,,,,,,,,,,,,,,,,,,,,,,,,,,,,,,,,,,,,,,,,,,,,,,,,,,,,,,,,,,,,,,,,,,,,,,,,,,,
,,,,,,,610af0eb860dfb6aeb567a49,32,2023-07-20_20h37.54.234,templeton2A_SD_practice,2020.2.10,Win32,60,,,,,,,,,,,,,,,,,,4,,,,,,,,,,,,,,,,,,,,,,,,,,,,,,,,,,,,,,,,,,,,,,,,,,,,,,,,,,,,,,,,,,,,,,,,,,,,,,,,,,,,,,,,,,,,,,,,
,,,,,,,610af0eb860dfb6aeb567a49,32,2023-07-20_20h37.54.234,templeton2A_SD_practice,2020.2.10,Win32,60,,,,,,,,,,,,,,,,,,4,,,,,,,,,,,,,,,,,,,,,,,,,,,,,,,,,,,,,,,,,,,,,,,,,,,,,,,,,,,,,,,,,,,,,,,,,,,,,,,,,,,,,,,,,,,,,,,,
,,,,,,,610af0eb860dfb6aeb567a49,32,2023-07-20_20h37.54.234,templeton2A_SD_practice,2020.2.10,Win32,60,,,,,,,,,,,,,,,,,,4,,,,,,,,,,,,,,,,,,,,,,,,,,,,,,,,,,,,,,,,,,,,,,,,,,,,,,,,,,,,,,,,,,,,,,,,,,,,,,,,,,,,,,,,,,,,,,,,
,,,,,,,610af0eb860dfb6aeb567a49,32,2023-07-20_20h37.54.234,templeton2A_SD_practice,2020.2.10,Win32,60,,,,,,,,,,,,,,,,,,1,,,,,,,,,,,,,,,,,,,,,,,,,,,,,,,,,,,,,,,,,,,,,,,,,,,,,,,,,,,,,,,,,,,,,,,,,,,,,,,,,,,,,,,,,,,,,,,,
,,,,,,,610af0eb860dfb6aeb567a49,32,2023-07-20_20h37.54.234,templeton2A_SD_practice,2020.2.10,Win32,60,,,,,,,,,,,,,,,,,,1,,,,,,,,,,,,,,,,,,,,,,,,,,,,,,,,,,,,,,,,,,,,,,,,,,,,,,,,,,,,,,,,,,,,,,,,,,,,,,,,,,,,,,,,,,,,,,,,
,,,,,,,610af0eb860dfb6aeb567a49,32,2023-07-20_20h37.54.234,templeton2A_SD_practice,2020.2.10,Win32,60,,,,,,,,,,,,,,,,,,1,,,,,,,,,,,,,,,,,,,,,,,,,,,,,,,,,,,,,,,,,,,,,,,,,,,,,,,,,,,,,,,,,,,,,,,,,,,,,,,,,,,,,,,,,,,,,,,,
,,,,,,,610af0eb860dfb6aeb567a49,32,2023-07-20_20h37.54.234,templeton2A_SD_practice,2020.2.10,Win32,60,,,,,,,,,,,,,,,,,,2,,,,,,,,,,,,,,,,,,,,,,,,,,,,,,,,,,,,,,,,,,,,,,,,,,,,,,,,,,,,,,,,,,,,,,,,,,,,,,,,,,,,,,,,,,,,,,,,
,,,,,,,610af0eb860dfb6aeb567a49,32,2023-07-20_20h37.54.234,templeton2A_SD_practice,2020.2.10,Win32,60,,,,,,,,,,,,,,,,,,,43.5,43.7,116.3045,,,,,,,,,,,,,,,,,,,,,,,,,,,,,,,,,,,,,,,,,,,,,,,,,,,,,,,,,,,,,,,,,,,,,,,,,,,,,,,,,,,,,,,,,,,,,
,,,,,,,610af0eb860dfb6aeb567a49,32,2023-07-20_20h37.54.234,templeton2A_SD_practice,2020.2.10,Win32,60,,,,,,,,,,,,,,,,,,,,,,0.0021,6.527671654,,,,,,,,,,,,,,,,,,,,,,,,,,,,,,,,,,,,,,,,,,,,,,,,,,,,,,,,,,,,,,,,,,,,,,,,,,,,,,,,,,,,,,,,,,,
,,,,,,,610af0eb860dfb6aeb567a49,32,2023-07-20_20h37.54.234,templeton2A_SD_practice,2020.2.10,Win32,60,,,,,,,,,,,,,,,,,,,,,,0.0179,6.527671654,,,,,,,,,,,,,,,,,,,,,,,,,,,,,,,,,,,,,,,,,,,,,,,,,,,,,,,,,,,,,,,,,,,,,,,,,,,,,,,,,,,,,,,,,,,
,,,,,,,610af0eb860dfb6aeb567a49,32,2023-07-20_20h37.54.234,templeton2A_SD_practice,2020.2.10,Win32,60,,,,,,,,,,,,,,,,,,,,,,0.0308,6.527671654,,,,,,,,,,,,,,,,,,,,,,,,,,,,,,,,,,,,,,,,,,,,,,,,,,,,,,,,,,,,,,,,,,,,,,,,,,,,,,,,,,,,,,,,,,,
,,,,,,,610af0eb860dfb6aeb567a49,32,2023-07-20_20h37.54.234,templeton2A_SD_practice,2020.2.10,Win32,60,,,,,,,,,,,,,,,,,,,,,,0.043,6.527671654,,,,,,,,,,,,,,,,,,,,,,,,,,,,,,,,,,,,,,,,,,,,,,,,,,,,,,,,,,,,,,,,,,,,,,,,,,,,,,,,,,,,,,,,,,,
,,,,,,,610af0eb860dfb6aeb567a49,32,2023-07-20_20h37.54.234,templeton2A_SD_practice,2020.2.10,Win32,60,,,,,,,,,,,,,,,,,,,,,,0.0561,6.527671654,,,,,,,,,,,,,,,,,,,,,,,,,,,,,,,,,,,,,,,,,,,,,,,,,,,,,,,,,,,,,,,,,,,,,,,,,,,,,,,,,,,,,,,,,,,
,,,,,,,610af0eb860dfb6aeb567a49,32,2023-07-20_20h37.54.234,templeton2A_SD_practice,2020.2.10,Win32,60,,,,,,,,,,,,,,,,,,,,,,0.0671,6.527671654,,,,,,,,,,,,,,,,,,,,,,,,,,,,,,,,,,,,,,,,,,,,,,,,,,,,,,,,,,,,,,,,,,,,,,,,,,,,,,,,,,,,,,,,,,,
,,,,,,,610af0eb860dfb6aeb567a49,32,2023-07-20_20h37.54.234,templeton2A_SD_practice,2020.2.10,Win32,60,,,,,,,,,,,,,,,,,,,,,,0.0776,6.527671654,,,,,,,,,,,,,,,,,,,,,,,,,,,,,,,,,,,,,,,,,,,,,,,,,,,,,,,,,,,,,,,,,,,,,,,,,,,,,,,,,,,,,,,,,,,
,,,,,,,610af0eb860dfb6aeb567a49,32,2023-07-20_20h37.54.234,templeton2A_SD_practice,2020.2.10,Win32,60,,,,,,,,,,,,,,,,,,,,,,0.0906,6.527671654,,,,,,,,,,,,,,,,,,,,,,,,,,,,,,,,,,,,,,,,,,,,,,,,,,,,,,,,,,,,,,,,,,,,,,,,,,,,,,,,,,,,,,,,,,,
,,,,,,,610af0eb860dfb6aeb567a49,32,2023-07-20_20h37.54.234,templeton2A_SD_practice,2020.2.10,Win32,60,,,,,,,,,,,,,,,,,,,,,,0.1025,6.527671654,,,,,,,,,,,,,,,,,,,,,,,,,,,,,,,,,,,,,,,,,,,,,,,,,,,,,,,,,,,,,,,,,,,,,,,,,,,,,,,,,,,,,,,,,,,
,,,,,,,610af0eb860dfb6aeb567a49,32,2023-07-20_20h37.54.234,templeton2A_SD_practice,2020.2.10,Win32,60,,,,,,,,,,,,,,,,,,,,,,0.1136,6.527671654,,,,,,,,,,,,,,,,,,,,,,,,,,,,,,,,,,,,,,,,,,,,,,,,,,,,,,,,,,,,,,,,,,,,,,,,,,,,,,,,,,,,,,,,,,,
,,,,,,,610af0eb860dfb6aeb567a49,32,2023-07-20_20h37.54.234,templeton2A_SD_practice,2020.2.10,Win32,60,,,,,,,,,,,,,,,,,,,,,,0.1249,6.527671654,,,,,,,,,,,,,,,,,,,,,,,,,,,,,,,,,,,,,,,,,,,,,,,,,,,,,,,,,,,,,,,,,,,,,,,,,,,,,,,,,,,,,,,,,,,
,,,,,,,610af0eb860dfb6aeb567a49,32,2023-07-20_20h37.54.234,templeton2A_SD_practice,2020.2.10,Win32,60,,,,,,,,,,,,,,,,,,,,,,0.1387,6.527671654,,,,,,,,,,,,,,,,,,,,,,,,,,,,,,,,,,,,,,,,,,,,,,,,,,,,,,,,,,,,,,,,,,,,,,,,,,,,,,,,,,,,,,,,,,,
,,,,,,,610af0eb860dfb6aeb567a49,32,2023-07-20_20h37.54.234,templeton2A_SD_practice,2020.2.10,Win32,60,,,,,,,,,,,,,,,,,,,,,,0.1523,6.527671654,,,,,,,,,,,,,,,,,,,,,,,,,,,,,,,,,,,,,,,,,,,,,,,,,,,,,,,,,,,,,,,,,,,,,,,,,,,,,,,,,,,,,,,,,,,
,,,,,,,610af0eb860dfb6aeb567a49,32,2023-07-20_20h37.54.234,templeton2A_SD_practice,2020.2.10,Win32,60,,,,,,,,,,,,,,,,,,,,,,0.1632,6.527671654,,,,,,,,,,,,,,,,,,,,,,,,,,,,,,,,,,,,,,,,,,,,,,,,,,,,,,,,,,,,,,,,,,,,,,,,,,,,,,,,,,,,,,,,,,,
,,,,,,,610af0eb860dfb6aeb567a49,32,2023-07-20_20h37.54.234,templeton2A_SD_practice,2020.2.10,Win32,60,,,,,,,,,,,,,,,,,,,,,,0.1748,6.527671654,,,,,,,,,,,,,,,,,,,,,,,,,,,,,,,,,,,,,,,,,,,,,,,,,,,,,,,,,,,,,,,,,,,,,,,,,,,,,,,,,,,,,,,,,,,
,,,,,,,610af0eb860dfb6aeb567a49,32,2023-07-20_20h37.54.234,templeton2A_SD_practice,2020.2.10,Win32,60,,,,,,,,,,,,,,,,,,,,,,0.1874,6.527671654,,,,,,,,,,,,,,,,,,,,,,,,,,,,,,,,,,,,,,,,,,,,,,,,,,,,,,,,,,,,,,,,,,,,,,,,,,,,,,,,,,,,,,,,,,,
,,,,,,,610af0eb860dfb6aeb567a49,32,2023-07-20_20h37.54.234,templeton2A_SD_practice,2020.2.10,Win32,60,,,,,,,,,,,,,,,,,,,,,,0.2006,6.527671654,,,,,,,,,,,,,,,,,,,,,,,,,,,,,,,,,,,,,,,,,,,,,,,,,,,,,,,,,,,,,,,,,,,,,,,,,,,,,,,,,,,,,,,,,,,
,,,,,,,610af0eb860dfb6aeb567a49,32,2023-07-20_20h37.54.234,templeton2A_SD_practice,2020.2.10,Win32,60,,,,,,,,,,,,,,,,,,,,,,0.2136,6.527671654,,,,,,,,,,,,,,,,,,,,,,,,,,,,,,,,,,,,,,,,,,,,,,,,,,,,,,,,,,,,,,,,,,,,,,,,,,,,,,,,,,,,,,,,,,,
,,,,,,,610af0eb860dfb6aeb567a49,32,2023-07-20_20h37.54.234,templeton2A_SD_practice,2020.2.10,Win32,60,,,,,,,,,,,,,,,,,,,,,,0.2271,6.527671654,,,,,,,,,,,,,,,,,,,,,,,,,,,,,,,,,,,,,,,,,,,,,,,,,,,,,,,,,,,,,,,,,,,,,,,,,,,,,,,,,,,,,,,,,,,
,,,,,,,610af0eb860dfb6aeb567a49,32,2023-07-20_20h37.54.234,templeton2A_SD_practice,2020.2.10,Win32,60,,,,,,,,,,,,,,,,,,,,,,0.2371,6.527671654,,,,,,,,,,,,,,,,,,,,,,,,,,,,,,,,,,,,,,,,,,,,,,,,,,,,,,,,,,,,,,,,,,,,,,,,,,,,,,,,,,,,,,,,,,,
,,,,,,,610af0eb860dfb6aeb567a49,32,2023-07-20_20h37.54.234,templeton2A_SD_practice,2020.2.10,Win32,60,,,,,,,,,,,,,,,,,,,,,,0.2498,6.527671654,,,,,,,,,,,,,,,,,,,,,,,,,,,,,,,,,,,,,,,,,,,,,,,,,,,,,,,,,,,,,,,,,,,,,,,,,,,,,,,,,,,,,,,,,,,
,,,,,,,610af0eb860dfb6aeb567a49,32,2023-07-20_20h37.54.234,templeton2A_SD_practice,2020.2.10,Win32,60,,,,,,,,,,,,,,,,,,,,,,0.2631,6.527671654,,,,,,,,,,,,,,,,,,,,,,,,,,,,,,,,,,,,,,,,,,,,,,,,,,,,,,,,,,,,,,,,,,,,,,,,,,,,,,,,,,,,,,,,,,,
,,,,,,,610af0eb860dfb6aeb567a49,32,2023-07-20_20h37.54.234,templeton2A_SD_practice,2020.2.10,Win32,60,,,,,,,,,,,,,,,,,,,,,,0.2753,6.527671654,,,,,,,,,,,,,,,,,,,,,,,,,,,,,,,,,,,,,,,,,,,,,,,,,,,,,,,,,,,,,,,,,,,,,,,,,,,,,,,,,,,,,,,,,,,
,,,,,,,610af0eb860dfb6aeb567a49,32,2023-07-20_20h37.54.234,templeton2A_SD_practice,2020.2.10,Win32,60,,,,,,,,,,,,,,,,,,,,,,0.2835,6.527671654,,,,,,,,,,,,,,,,,,,,,,,,,,,,,,,,,,,,,,,,,,,,,,,,,,,,,,,,,,,,,,,,,,,,,,,,,,,,,,,,,,,,,,,,,,,
,,,,,,,610af0eb860dfb6aeb567a49,32,2023-07-20_20h37.54.234,templeton2A_SD_practice,2020.2.10,Win32,60,,,,,,,,,,,,,,,,,,,,,,0.3,6.527671654,,,,,,,,,,,,,,,,,,,,,,,,,,,,,,,,,,,,,,,,,,,,,,,,,,,,,,,,,,,,,,,,,,,,,,,,,,,,,,,,,,,,,,,,,,,
,,,,,,,610af0eb860dfb6aeb567a49,32,2023-07-20_20h37.54.234,templeton2A_SD_practice,2020.2.10,Win32,60,,,,,,,,,,,,,,,,,,,,,,0.3125,6.527671654,,,,,,,,,,,,,,,,,,,,,,,,,,,,,,,,,,,,,,,,,,,,,,,,,,,,,,,,,,,,,,,,,,,,,,,,,,,,,,,,,,,,,,,,,,,
,,,,,,,610af0eb860dfb6aeb567a49,32,2023-07-20_20h37.54.234,templeton2A_SD_practice,2020.2.10,Win32,60,,,,,,,,,,,,,,,,,,,,,,0.3259,6.527671654,,,,,,,,,,,,,,,,,,,,,,,,,,,,,,,,,,,,,,,,,,,,,,,,,,,,,,,,,,,,,,,,,,,,,,,,,,,,,,,,,,,,,,,,,,,
,,,,,,,610af0eb860dfb6aeb567a49,32,2023-07-20_20h37.54.234,templeton2A_SD_practice,2020.2.10,Win32,60,,,,,,,,,,,,,,,,,,,,,,0.3394,6.527671654,,,,,,,,,,,,,,,,,,,,,,,,,,,,,,,,,,,,,,,,,,,,,,,,,,,,,,,,,,,,,,,,,,,,,,,,,,,,,,,,,,,,,,,,,,,
,,,,,,,610af0eb860dfb6aeb567a49,32,2023-07-20_20h37.54.234,templeton2A_SD_practice,2020.2.10,Win32,60,,,,,,,,,,,,,,,,,,,,,,0.3533,6.527671654,,,,,,,,,,,,,,,,,,,,,,,,,,,,,,,,,,,,,,,,,,,,,,,,,,,,,,,,,,,,,,,,,,,,,,,,,,,,,,,,,,,,,,,,,,,
,,,,,,,610af0eb860dfb6aeb567a49,32,2023-07-20_20h37.54.234,templeton2A_SD_practice,2020.2.10,Win32,60,,,,,,,,,,,,,,,,,,,,,,0.3667,6.527671654,,,,,,,,,,,,,,,,,,,,,,,,,,,,,,,,,,,,,,,,,,,,,,,,,,,,,,,,,,,,,,,,,,,,,,,,,,,,,,,,,,,,,,,,,,,
,,,,,,,610af0eb860dfb6aeb567a49,32,2023-07-20_20h37.54.234,templeton2A_SD_practice,2020.2.10,Win32,60,,,,,,,,,,,,,,,,,,,,,,0.3797,6.527671654,,,,,,,,,,,,,,,,,,,,,,,,,,,,,,,,,,,,,,,,,,,,,,,,,,,,,,,,,,,,,,,,,,,,,,,,,,,,,,,,,,,,,,,,,,,
,,,,,,,610af0eb860dfb6aeb567a49,32,2023-07-20_20h37.54.234,templeton2A_SD_practice,2020.2.10,Win32,60,,,,,,,,,,,,,,,,,,,,,,0.3936,6.527671654,,,,,,,,,,,,,,,,,,,,,,,,,,,,,,,,,,,,,,,,,,,,,,,,,,,,,,,,,,,,,,,,,,,,,,,,,,,,,,,,,,,,,,,,,,,
,,,,,,,610af0eb860dfb6aeb567a49,32,2023-07-20_20h37.54.234,templeton2A_SD_practice,2020.2.10,Win32,60,,,,,,,,,,,,,,,,,,,,,,0.4066,6.527671654,,,,,,,,,,,,,,,,,,,,,,,,,,,,,,,,,,,,,,,,,,,,,,,,,,,,,,,,,,,,,,,,,,,,,,,,,,,,,,,,,,,,,,,,,,,
,,,,,,,610af0eb860dfb6aeb567a49,32,2023-07-20_20h37.54.234,templeton2A_SD_practice,2020.2.10,Win32,60,,,,,,,,,,,,,,,,,,,,,,0.419,6.527671654,,,,,,,,,,,,,,,,,,,,,,,,,,,,,,,,,,,,,,,,,,,,,,,,,,,,,,,,,,,,,,,,,,,,,,,,,,,,,,,,,,,,,,,,,,,
,,,,,,,610af0eb860dfb6aeb567a49,32,2023-07-20_20h37.54.234,templeton2A_SD_practice,2020.2.10,Win32,60,,,,,,,,,,,,,,,,,,,,,,0.4287,6.527671654,,,,,,,,,,,,,,,,,,,,,,,,,,,,,,,,,,,,,,,,,,,,,,,,,,,,,,,,,,,,,,,,,,,,,,,,,,,,,,,,,,,,,,,,,,,
,,,,,,,610af0eb860dfb6aeb567a49,32,2023-07-20_20h37.54.234,templeton2A_SD_practice,2020.2.10,Win32,60,,,,,,,,,,,,,,,,,,,,,,0.4415,6.527671654,,,,,,,,,,,,,,,,,,,,,,,,,,,,,,,,,,,,,,,,,,,,,,,,,,,,,,,,,,,,,,,,,,,,,,,,,,,,,,,,,,,,,,,,,,,
,,,,,,,610af0eb860dfb6aeb567a49,32,2023-07-20_20h37.54.234,templeton2A_SD_practice,2020.2.10,Win32,60,,,,,,,,,,,,,,,,,,,,,,0.4541,6.527671654,,,,,,,,,,,,,,,,,,,,,,,,,,,,,,,,,,,,,,,,,,,,,,,,,,,,,,,,,,,,,,,,,,,,,,,,,,,,,,,,,,,,,,,,,,,
,,,,,,,610af0eb860dfb6aeb567a49,32,2023-07-20_20h37.54.234,templeton2A_SD_practice,2020.2.10,Win32,60,,,,,,,,,,,,,,,,,,,,,,0.4682,6.527671654,,,,,,,,,,,,,,,,,,,,,,,,,,,,,,,,,,,,,,,,,,,,,,,,,,,,,,,,,,,,,,,,,,,,,,,,,,,,,,,,,,,,,,,,,,,
,,,,,,,610af0eb860dfb6aeb567a49,32,2023-07-20_20h37.54.234,templeton2A_SD_practice,2020.2.10,Win32,60,,,,,,,,,,,,,,,,,,,,,,0.4815,6.527671654,,,,,,,,,,,,,,,,,,,,,,,,,,,,,,,,,,,,,,,,,,,,,,,,,,,,,,,,,,,,,,,,,,,,,,,,,,,,,,,,,,,,,,,,,,,
,,,,,,,610af0eb860dfb6aeb567a49,32,2023-07-20_20h37.54.234,templeton2A_SD_practice,2020.2.10,Win32,60,,,,,,,,,,,,,,,,,,,,,,0.4914,6.527671654,,,,,,,,,,,,,,,,,,,,,,,,,,,,,,,,,,,,,,,,,,,,,,,,,,,,,,,,,,,,,,,,,,,,,,,,,,,,,,,,,,,,,,,,,,,
,,,,,,,610af0eb860dfb6aeb567a49,32,2023-07-20_20h37.54.234,templeton2A_SD_practice,2020.2.10,Win32,60,,,,,,,,,,,,,,,,,,,,,,0.4999,6.527671654,,,,,,,,,,,,,,,,,,,,,,,,,,,,,,,,,,,,,,,,,,,,,,,,,,,,,,,,,,,,,,,,,,,,,,,,,,,,,,,,,,,,,,,,,,,
,,,,,,,610af0eb860dfb6aeb567a49,32,2023-07-20_20h37.54.234,templeton2A_SD_practice,2020.2.10,Win32,60,,,,,,,,,,,,,,,,,,,,,,0.5134,6.527671654,,,,,,,,,,,,,,,,,,,,,,,,,,,,,,,,,,,,,,,,,,,,,,,,,,,,,,,,,,,,,,,,,,,,,,,,,,,,,,,,,,,,,,,,,,,
,,,,,,,610af0eb860dfb6aeb567a49,32,2023-07-20_20h37.54.234,templeton2A_SD_practice,2020.2.10,Win32,60,,,,,,,,,,,,,,,,,,,,,,0.5268,6.527671654,,,,,,,,,,,,,,,,,,,,,,,,,,,,,,,,,,,,,,,,,,,,,,,,,,,,,,,,,,,,,,,,,,,,,,,,,,,,,,,,,,,,,,,,,,,
,,,,,,,610af0eb860dfb6aeb567a49,32,2023-07-20_20h37.54.234,templeton2A_SD_practice,2020.2.10,Win32,60,,,,,,,,,,,,,,,,,,,,,,0.5389,6.527671654,,,,,,,,,,,,,,,,,,,,,,,,,,,,,,,,,,,,,,,,,,,,,,,,,,,,,,,,,,,,,,,,,,,,,,,,,,,,,,,,,,,,,,,,,,,
,,,,,,,610af0eb860dfb6aeb567a49,32,2023-07-20_20h37.54.234,templeton2A_SD_practice,2020.2.10,Win32,60,,,,,,,,,,,,,,,,,,,,,,0.552,6.527671654,,,,,,,,,,,,,,,,,,,,,,,,,,,,,,,,,,,,,,,,,,,,,,,,,,,,,,,,,,,,,,,,,,,,,,,,,,,,,,,,,,,,,,,,,,,
,,,,,,,610af0eb860dfb6aeb567a49,32,2023-07-20_20h37.54.234,templeton2A_SD_practice,2020.2.10,Win32,60,,,,,,,,,,,,,,,,,,,,,,0.5614,6.527671654,,,,,,,,,,,,,,,,,,,,,,,,,,,,,,,,,,,,,,,,,,,,,,,,,,,,,,,,,,,,,,,,,,,,,,,,,,,,,,,,,,,,,,,,,,,
,,,,,,,610af0eb860dfb6aeb567a49,32,2023-07-20_20h37.54.234,templeton2A_SD_practice,2020.2.10,Win32,60,,,,,,,,,,,,,,,,,,,,,,0.5741,6.527671654,,,,,,,,,,,,,,,,,,,,,,,,,,,,,,,,,,,,,,,,,,,,,,,,,,,,,,,,,,,,,,,,,,,,,,,,,,,,,,,,,,,,,,,,,,,
,,,,,,,610af0eb860dfb6aeb567a49,32,2023-07-20_20h37.54.234,templeton2A_SD_practice,2020.2.10,Win32,60,,,,,,,,,,,,,,,,,,,,,,0.587,6.527671654,,,,,,,,,,,,,,,,,,,,,,,,,,,,,,,,,,,,,,,,,,,,,,,,,,,,,,,,,,,,,,,,,,,,,,,,,,,,,,,,,,,,,,,,,,,
,,,,,,,610af0eb860dfb6aeb567a49,32,2023-07-20_20h37.54.234,templeton2A_SD_practice,2020.2.10,Win32,60,,,,,,,,,,,,,,,,,,,,,,0.6007,6.527671654,,,,,,,,,,,,,,,,,,,,,,,,,,,,,,,,,,,,,,,,,,,,,,,,,,,,,,,,,,,,,,,,,,,,,,,,,,,,,,,,,,,,,,,,,,,
,,,,,,,610af0eb860dfb6aeb567a49,32,2023-07-20_20h37.54.234,templeton2A_SD_practice,2020.2.10,Win32,60,,,,,,,,,,,,,,,,,,,,,,0.6118,6.527671654,,,,,,,,,,,,,,,,,,,,,,,,,,,,,,,,,,,,,,,,,,,,,,,,,,,,,,,,,,,,,,,,,,,,,,,,,,,,,,,,,,,,,,,,,,,
,,,,,,,610af0eb860dfb6aeb567a49,32,2023-07-20_20h37.54.234,templeton2A_SD_practice,2020.2.10,Win32,60,,,,,,,,,,,,,,,,,,,,,,0.6242,6.527671654,,,,,,,,,,,,,,,,,,,,,,,,,,,,,,,,,,,,,,,,,,,,,,,,,,,,,,,,,,,,,,,,,,,,,,,,,,,,,,,,,,,,,,,,,,,
,,,,,,,610af0eb860dfb6aeb567a49,32,2023-07-20_20h37.54.234,templeton2A_SD_practice,2020.2.10,Win32,60,,,,,,,,,,,,,,,,,,,,,,0.6373,6.527671654,,,,,,,,,,,,,,,,,,,,,,,,,,,,,,,,,,,,,,,,,,,,,,,,,,,,,,,,,,,,,,,,,,,,,,,,,,,,,,,,,,,,,,,,,,,
,,,,,,,610af0eb860dfb6aeb567a49,32,2023-07-20_20h37.54.234,templeton2A_SD_practice,2020.2.10,Win32,60,,,,,,,,,,,,,,,,,,,,,,0.6505,6.527671654,,,,,,,,,,,,,,,,,,,,,,,,,,,,,,,,,,,,,,,,,,,,,,,,,,,,,,,,,,,,,,,,,,,,,,,,,,,,,,,,,,,,,,,,,,,
,,,,,,,610af0eb860dfb6aeb567a49,32,2023-07-20_20h37.54.234,templeton2A_SD_practice,2020.2.10,Win32,60,,,,,,,,,,,,,,,,,,,,,,0.6603,6.527671654,,,,,,,,,,,,,,,,,,,,,,,,,,,,,,,,,,,,,,,,,,,,,,,,,,,,,,,,,,,,,,,,,,,,,,,,,,,,,,,,,,,,,,,,,,,
,,,,,,,610af0eb860dfb6aeb567a49,32,2023-07-20_20h37.54.234,templeton2A_SD_practice,2020.2.10,Win32,60,,,,,,,,,,,,,,,,,,,,,,0.6699,6.527671654,,,,,,,,,,,,,,,,,,,,,,,,,,,,,,,,,,,,,,,,,,,,,,,,,,,,,,,,,,,,,,,,,,,,,,,,,,,,,,,,,,,,,,,,,,,
,,,,,,,610af0eb860dfb6aeb567a49,32,2023-07-20_20h37.54.234,templeton2A_SD_practice,2020.2.10,Win32,60,,,,,,,,,,,,,,,,,,,,,,0.6844,6.527671654,,,,,,,,,,,,,,,,,,,,,,,,,,,,,,,,,,,,,,,,,,,,,,,,,,,,,,,,,,,,,,,,,,,,,,,,,,,,,,,,,,,,,,,,,,,
,,,,,,,610af0eb860dfb6aeb567a49,32,2023-07-20_20h37.54.234,templeton2A_SD_practice,2020.2.10,Win32,60,,,,,,,,,,,,,,,,,,,,,,0.6948,6.527671654,,,,,,,,,,,,,,,,,,,,,,,,,,,,,,,,,,,,,,,,,,,,,,,,,,,,,,,,,,,,,,,,,,,,,,,,,,,,,,,,,,,,,,,,,,,
,,,,,,,610af0eb860dfb6aeb567a49,32,2023-07-20_20h37.54.234,templeton2A_SD_practice,2020.2.10,Win32,60,,,,,,,,,,,,,,,,,,,,,,0.7049,6.527671654,,,,,,,,,,,,,,,,,,,,,,,,,,,,,,,,,,,,,,,,,,,,,,,,,,,,,,,,,,,,,,,,,,,,,,,,,,,,,,,,,,,,,,,,,,,
,,,,,,,610af0eb860dfb6aeb567a49,32,2023-07-20_20h37.54.234,templeton2A_SD_practice,2020.2.10,Win32,60,,,,,,,,,,,,,,,,,,,,,,0.714,6.527671654,,,,,,,,,,,,,,,,,,,,,,,,,,,,,,,,,,,,,,,,,,,,,,,,,,,,,,,,,,,,,,,,,,,,,,,,,,,,,,,,,,,,,,,,,,,
,,,,,,,610af0eb860dfb6aeb567a49,32,2023-07-20_20h37.54.234,templeton2A_SD_practice,2020.2.10,Win32,60,,,,,,,,,,,,,,,,,,,,,,0.7235,6.527671654,,,,,,,,,,,,,,,,,,,,,,,,,,,,,,,,,,,,,,,,,,,,,,,,,,,,,,,,,,,,,,,,,,,,,,,,,,,,,,,,,,,,,,,,,,,
,,,,,,,610af0eb860dfb6aeb567a49,32,2023-07-20_20h37.54.234,templeton2A_SD_practice,2020.2.10,Win32,60,,,,,,,,,,,,,,,,,,,,,,0.7324,6.527671654,,,,,,,,,,,,,,,,,,,,,,,,,,,,,,,,,,,,,,,,,,,,,,,,,,,,,,,,,,,,,,,,,,,,,,,,,,,,,,,,,,,,,,,,,,,
,,,,,,,610af0eb860dfb6aeb567a49,32,2023-07-20_20h37.54.234,templeton2A_SD_practice,2020.2.10,Win32,60,,,,,,,,,,,,,,,,,,,,,,0.7506,6.527671654,,,,,,,,,,,,,,,,,,,,,,,,,,,,,,,,,,,,,,,,,,,,,,,,,,,,,,,,,,,,,,,,,,,,,,,,,,,,,,,,,,,,,,,,,,,
,,,,,,,610af0eb860dfb6aeb567a49,32,2023-07-20_20h37.54.234,templeton2A_SD_practice,2020.2.10,Win32,60,,,,,,,,,,,,,,,,,,,,,,0.7646,6.527671654,,,,,,,,,,,,,,,,,,,,,,,,,,,,,,,,,,,,,,,,,,,,,,,,,,,,,,,,,,,,,,,,,,,,,,,,,,,,,,,,,,,,,,,,,,,
,,,,,,,610af0eb860dfb6aeb567a49,32,2023-07-20_20h37.54.234,templeton2A_SD_practice,2020.2.10,Win32,60,,,,,,,,,,,,,,,,,,,,,,0.7775,6.527671654,,,,,,,,,,,,,,,,,,,,,,,,,,,,,,,,,,,,,,,,,,,,,,,,,,,,,,,,,,,,,,,,,,,,,,,,,,,,,,,,,,,,,,,,,,,
,,,,,,,610af0eb860dfb6aeb567a49,32,2023-07-20_20h37.54.234,templeton2A_SD_practice,2020.2.10,Win32,60,,,,,,,,,,,,,,,,,,,,,,0.79,6.527671654,,,,,,,,,,,,,,,,,,,,,,,,,,,,,,,,,,,,,,,,,,,,,,,,,,,,,,,,,,,,,,,,,,,,,,,,,,,,,,,,,,,,,,,,,,,
,,,,,,,610af0eb860dfb6aeb567a49,32,2023-07-20_20h37.54.234,templeton2A_SD_practice,2020.2.10,Win32,60,,,,,,,,,,,,,,,,,,,,,,0.8029,6.527671654,,,,,,,,,,,,,,,,,,,,,,,,,,,,,,,,,,,,,,,,,,,,,,,,,,,,,,,,,,,,,,,,,,,,,,,,,,,,,,,,,,,,,,,,,,,
,,,,,,,610af0eb860dfb6aeb567a49,32,2023-07-20_20h37.54.234,templeton2A_SD_practice,2020.2.10,Win32,60,,,,,,,,,,,,,,,,,,,,,,0.8157,6.527671654,,,,,,,,,,,,,,,,,,,,,,,,,,,,,,,,,,,,,,,,,,,,,,,,,,,,,,,,,,,,,,,,,,,,,,,,,,,,,,,,,,,,,,,,,,,
,,,,,,,610af0eb860dfb6aeb567a49,32,2023-07-20_20h37.54.234,templeton2A_SD_practice,2020.2.10,Win32,60,,,,,,,,,,,,,,,,,,,,,,0.8287,6.527671654,,,,,,,,,,,,,,,,,,,,,,,,,,,,,,,,,,,,,,,,,,,,,,,,,,,,,,,,,,,,,,,,,,,,,,,,,,,,,,,,,,,,,,,,,,,
,,,,,,,610af0eb860dfb6aeb567a49,32,2023-07-20_20h37.54.234,templeton2A_SD_practice,2020.2.10,Win32,60,,,,,,,,,,,,,,,,,,,,,,0.8407,6.527671654,,,,,,,,,,,,,,,,,,,,,,,,,,,,,,,,,,,,,,,,,,,,,,,,,,,,,,,,,,,,,,,,,,,,,,,,,,,,,,,,,,,,,,,,,,,
,,,,,,,610af0eb860dfb6aeb567a49,32,2023-07-20_20h37.54.234,templeton2A_SD_practice,2020.2.10,Win32,60,,,,,,,,,,,,,,,,,,,,,,0.8542,6.527671654,,,,,,,,,,,,,,,,,,,,,,,,,,,,,,,,,,,,,,,,,,,,,,,,,,,,,,,,,,,,,,,,,,,,,,,,,,,,,,,,,,,,,,,,,,,
,,,,,,,610af0eb860dfb6aeb567a49,32,2023-07-20_20h37.54.234,templeton2A_SD_practice,2020.2.10,Win32,60,,,,,,,,,,,,,,,,,,,,,,0.8665,6.527671654,,,,,,,,,,,,,,,,,,,,,,,,,,,,,,,,,,,,,,,,,,,,,,,,,,,,,,,,,,,,,,,,,,,,,,,,,,,,,,,,,,,,,,,,,,,
,,,,,,,610af0eb860dfb6aeb567a49,32,2023-07-20_20h37.54.234,templeton2A_SD_practice,2020.2.10,Win32,60,,,,,,,,,,,,,,,,,,,,,,0.8792,6.527671654,,,,,,,,,,,,,,,,,,,,,,,,,,,,,,,,,,,,,,,,,,,,,,,,,,,,,,,,,,,,,,,,,,,,,,,,,,,,,,,,,,,,,,,,,,,
,,,,,,,610af0eb860dfb6aeb567a49,32,2023-07-20_20h37.54.234,templeton2A_SD_practice,2020.2.10,Win32,60,,,,,,,,,,,,,,,,,,,,,,0.8922,6.527671654,,,,,,,,,,,,,,,,,,,,,,,,,,,,,,,,,,,,,,,,,,,,,,,,,,,,,,,,,,,,,,,,,,,,,,,,,,,,,,,,,,,,,,,,,,,
,,,,,,,610af0eb860dfb6aeb567a49,32,2023-07-20_20h37.54.234,templeton2A_SD_practice,2020.2.10,Win32,60,,,,,,,,,,,,,,,,,,,,,,0.903,6.527671654,,,,,,,,,,,,,,,,,,,,,,,,,,,,,,,,,,,,,,,,,,,,,,,,,,,,,,,,,,,,,,,,,,,,,,,,,,,,,,,,,,,,,,,,,,,
,,,,,,,610af0eb860dfb6aeb567a49,32,2023-07-20_20h37.54.234,templeton2A_SD_practice,2020.2.10,Win32,60,,,,,,,,,,,,,,,,,,,,,,0.9145,6.527671654,,,,,,,,,,,,,,,,,,,,,,,,,,,,,,,,,,,,,,,,,,,,,,,,,,,,,,,,,,,,,,,,,,,,,,,,,,,,,,,,,,,,,,,,,,,
,,,,,,,610af0eb860dfb6aeb567a49,32,2023-07-20_20h37.54.234,templeton2A_SD_practice,2020.2.10,Win32,60,,,,,,,,,,,,,,,,,,,,,,0.9266,6.527671654,,,,,,,,,,,,,,,,,,,,,,,,,,,,,,,,,,,,,,,,,,,,,,,,,,,,,,,,,,,,,,,,,,,,,,,,,,,,,,,,,,,,,,,,,,,
,,,,,,,610af0eb860dfb6aeb567a49,32,2023-07-20_20h37.54.234,templeton2A_SD_practice,2020.2.10,Win32,60,,,,,,,,,,,,,,,,,,,,,,0.9391,6.527671654,,,,,,,,,,,,,,,,,,,,,,,,,,,,,,,,,,,,,,,,,,,,,,,,,,,,,,,,,,,,,,,,,,,,,,,,,,,,,,,,,,,,,,,,,,,
,,,,,,,610af0eb860dfb6aeb567a49,32,2023-07-20_20h37.54.234,templeton2A_SD_practice,2020.2.10,Win32,60,,,,,,,,,,,,,,,,,,,,,,0.9483,6.527671654,,,,,,,,,,,,,,,,,,,,,,,,,,,,,,,,,,,,,,,,,,,,,,,,,,,,,,,,,,,,,,,,,,,,,,,,,,,,,,,,,,,,,,,,,,,
,,,,,,,610af0eb860dfb6aeb567a49,32,2023-07-20_20h37.54.234,templeton2A_SD_practice,2020.2.10,Win32,60,,,,,,,,,,,,,,,,,,,,,,0.958,6.527671654,,,,,,,,,,,,,,,,,,,,,,,,,,,,,,,,,,,,,,,,,,,,,,,,,,,,,,,,,,,,,,,,,,,,,,,,,,,,,,,,,,,,,,,,,,,
,,,,,,,610af0eb860dfb6aeb567a49,32,2023-07-20_20h37.54.234,templeton2A_SD_practice,2020.2.10,Win32,60,,,,,,,,,,,,,,,,,,,,,,0.9655,6.527671654,,,,,,,,,,,,,,,,,,,,,,,,,,,,,,,,,,,,,,,,,,,,,,,,,,,,,,,,,,,,,,,,,,,,,,,,,,,,,,,,,,,,,,,,,,,
,,,,,,,610af0eb860dfb6aeb567a49,32,2023-07-20_20h37.54.234,templeton2A_SD_practice,2020.2.10,Win32,60,,,,,,,,,,,,,,,,,,,,,,0.9736,6.527671654,,,,,,,,,,,,,,,,,,,,,,,,,,,,,,,,,,,,,,,,,,,,,,,,,,,,,,,,,,,,,,,,,,,,,,,,,,,,,,,,,,,,,,,,,,,
,,,,,,,610af0eb860dfb6aeb567a49,32,2023-07-20_20h37.54.234,templeton2A_SD_practice,2020.2.10,Win32,60,,,,,,,,,,,,,,,,,,,,,,0.9849,6.527671654,,,,,,,,,,,,,,,,,,,,,,,,,,,,,,,,,,,,,,,,,,,,,,,,,,,,,,,,,,,,,,,,,,,,,,,,,,,,,,,,,,,,,,,,,,,
,,,,,,,610af0eb860dfb6aeb567a49,32,2023-07-20_20h37.54.234,templeton2A_SD_practice,2020.2.10,Win32,60,,,,,,,,,,,,,,,,,,,,,,0.9942,6.527671654,,,,,,,,,,,,,,,,,,,,,,,,,,,,,,,,,,,,,,,,,,,,,,,,,,,,,,,,,,,,,,,,,,,,,,,,,,,,,,,,,,,,,,,,,,,
,,,,,,,610af0eb860dfb6aeb567a49,32,2023-07-20_20h37.54.234,templeton2A_SD_practice,2020.2.10,Win32,60,,,,,,,,,,,,,,,,,,,,,,1.0041,6.527671654,,,,,,,,,,,,,,,,,,,,,,,,,,,,,,,,,,,,,,,,,,,,,,,,,,,,,,,,,,,,,,,,,,,,,,,,,,,,,,,,,,,,,,,,,,,
,,,,,,,610af0eb860dfb6aeb567a49,32,2023-07-20_20h37.54.234,templeton2A_SD_practice,2020.2.10,Win32,60,,,,,,,,,,,,,,,,,,,,,,1.0164,6.527671654,,,,,,,,,,,,,,,,,,,,,,,,,,,,,,,,,,,,,,,,,,,,,,,,,,,,,,,,,,,,,,,,,,,,,,,,,,,,,,,,,,,,,,,,,,,
,,,,,,,610af0eb860dfb6aeb567a49,32,2023-07-20_20h37.54.234,templeton2A_SD_practice,2020.2.10,Win32,60,,,,,,,,,,,,,,,,,,,,,,1.0291,6.527671654,,,,,,,,,,,,,,,,,,,,,,,,,,,,,,,,,,,,,,,,,,,,,,,,,,,,,,,,,,,,,,,,,,,,,,,,,,,,,,,,,,,,,,,,,,,
,,,,,,,610af0eb860dfb6aeb567a49,32,2023-07-20_20h37.54.234,templeton2A_SD_practice,2020.2.10,Win32,60,,,,,,,,,,,,,,,,,,,,,,1.0421,6.527671654,,,,,,,,,,,,,,,,,,,,,,,,,,,,,,,,,,,,,,,,,,,,,,,,,,,,,,,,,,,,,,,,,,,,,,,,,,,,,,,,,,,,,,,,,,,
,,,,,,,610af0eb860dfb6aeb567a49,32,2023-07-20_20h37.54.234,templeton2A_SD_practice,2020.2.10,Win32,60,,,,,,,,,,,,,,,,,,,,,,1.0549,6.527671654,,,,,,,,,,,,,,,,,,,,,,,,,,,,,,,,,,,,,,,,,,,,,,,,,,,,,,,,,,,,,,,,,,,,,,,,,,,,,,,,,,,,,,,,,,,
,,,,,,,610af0eb860dfb6aeb567a49,32,2023-07-20_20h37.54.234,templeton2A_SD_practice,2020.2.10,Win32,60,,,,,,,,,,,,,,,,,,,,,,1.0651,6.527671654,,,,,,,,,,,,,,,,,,,,,,,,,,,,,,,,,,,,,,,,,,,,,,,,,,,,,,,,,,,,,,,,,,,,,,,,,,,,,,,,,,,,,,,,,,,
,,,,,,,610af0eb860dfb6aeb567a49,32,2023-07-20_20h37.54.234,templeton2A_SD_practice,2020.2.10,Win32,60,,,,,,,,,,,,,,,,,,,,,,1.0756,6.527671654,,,,,,,,,,,,,,,,,,,,,,,,,,,,,,,,,,,,,,,,,,,,,,,,,,,,,,,,,,,,,,,,,,,,,,,,,,,,,,,,,,,,,,,,,,,
,,,,,,,610af0eb860dfb6aeb567a49,32,2023-07-20_20h37.54.234,templeton2A_SD_practice,2020.2.10,Win32,60,,,,,,,,,,,,,,,,,,,,,,1.0878,6.527671654,,,,,,,,,,,,,,,,,,,,,,,,,,,,,,,,,,,,,,,,,,,,,,,,,,,,,,,,,,,,,,,,,,,,,,,,,,,,,,,,,,,,,,,,,,,
,,,,,,,610af0eb860dfb6aeb567a49,32,2023-07-20_20h37.54.234,templeton2A_SD_practice,2020.2.10,Win32,60,,,,,,,,,,,,,,,,,,,,,,1.0992,6.527671654,,,,,,,,,,,,,,,,,,,,,,,,,,,,,,,,,,,,,,,,,,,,,,,,,,,,,,,,,,,,,,,,,,,,,,,,,,,,,,,,,,,,,,,,,,,
,,,,,,,610af0eb860dfb6aeb567a49,32,2023-07-20_20h37.54.234,templeton2A_SD_practice,2020.2.10,Win32,60,,,,,,,,,,,,,,,,,,,,,,1.1119,6.527671654,,,,,,,,,,,,,,,,,,,,,,,,,,,,,,,,,,,,,,,,,,,,,,,,,,,,,,,,,,,,,,,,,,,,,,,,,,,,,,,,,,,,,,,,,,,
,,,,,,,610af0eb860dfb6aeb567a49,32,2023-07-20_20h37.54.234,templeton2A_SD_practice,2020.2.10,Win32,60,,,,,,,,,,,,,,,,,,,,,,1.1231,6.527671654,,,,,,,,,,,,,,,,,,,,,,,,,,,,,,,,,,,,,,,,,,,,,,,,,,,,,,,,,,,,,,,,,,,,,,,,,,,,,,,,,,,,,,,,,,,
,,,,,,,610af0eb860dfb6aeb567a49,32,2023-07-20_20h37.54.234,templeton2A_SD_practice,2020.2.10,Win32,60,,,,,,,,,,,,,,,,,,,,,,1.1338,6.527671654,,,,,,,,,,,,,,,,,,,,,,,,,,,,,,,,,,,,,,,,,,,,,,,,,,,,,,,,,,,,,,,,,,,,,,,,,,,,,,,,,,,,,,,,,,,
,,,,,,,610af0eb860dfb6aeb567a49,32,2023-07-20_20h37.54.234,templeton2A_SD_practice,2020.2.10,Win32,60,,,,,,,,,,,,,,,,,,,,,,1.1444,6.527671654,,,,,,,,,,,,,,,,,,,,,,,,,,,,,,,,,,,,,,,,,,,,,,,,,,,,,,,,,,,,,,,,,,,,,,,,,,,,,,,,,,,,,,,,,,,
,,,,,,,610af0eb860dfb6aeb567a49,32,2023-07-20_20h37.54.234,templeton2A_SD_practice,2020.2.10,Win32,60,,,,,,,,,,,,,,,,,,,,,,1.1554,6.527671654,,,,,,,,,,,,,,,,,,,,,,,,,,,,,,,,,,,,,,,,,,,,,,,,,,,,,,,,,,,,,,,,,,,,,,,,,,,,,,,,,,,,,,,,,,,
,,,,,,,610af0eb860dfb6aeb567a49,32,2023-07-20_20h37.54.234,templeton2A_SD_practice,2020.2.10,Win32,60,,,,,,,,,,,,,,,,,,,,,,1.1669,6.527671654,,,,,,,,,,,,,,,,,,,,,,,,,,,,,,,,,,,,,,,,,,,,,,,,,,,,,,,,,,,,,,,,,,,,,,,,,,,,,,,,,,,,,,,,,,,
,,,,,,,610af0eb860dfb6aeb567a49,32,2023-07-20_20h37.54.234,templeton2A_SD_practice,2020.2.10,Win32,60,,,,,,,,,,,,,,,,,,,,,,1.1796,6.527671654,,,,,,,,,,,,,,,,,,,,,,,,,,,,,,,,,,,,,,,,,,,,,,,,,,,,,,,,,,,,,,,,,,,,,,,,,,,,,,,,,,,,,,,,,,,
,,,,,,,610af0eb860dfb6aeb567a49,32,2023-07-20_20h37.54.234,templeton2A_SD_practice,2020.2.10,Win32,60,,,,,,,,,,,,,,,,,,,,,,1.1934,6.527671654,,,,,,,,,,,,,,,,,,,,,,,,,,,,,,,,,,,,,,,,,,,,,,,,,,,,,,,,,,,,,,,,,,,,,,,,,,,,,,,,,,,,,,,,,,,
,,,,,,,610af0eb860dfb6aeb567a49,32,2023-07-20_20h37.54.234,templeton2A_SD_practice,2020.2.10,Win32,60,,,,,,,,,,,,,,,,,,,,,,1.2063,6.527671654,,,,,,,,,,,,,,,,,,,,,,,,,,,,,,,,,,,,,,,,,,,,,,,,,,,,,,,,,,,,,,,,,,,,,,,,,,,,,,,,,,,,,,,,,,,
,,,,,,,610af0eb860dfb6aeb567a49,32,2023-07-20_20h37.54.234,templeton2A_SD_practice,2020.2.10,Win32,60,,,,,,,,,,,,,,,,,,,,,,1.2183,6.527671654,,,,,,,,,,,,,,,,,,,,,,,,,,,,,,,,,,,,,,,,,,,,,,,,,,,,,,,,,,,,,,,,,,,,,,,,,,,,,,,,,,,,,,,,,,,
,,,,,,,610af0eb860dfb6aeb567a49,32,2023-07-20_20h37.54.234,templeton2A_SD_practice,2020.2.10,Win32,60,,,,,,,,,,,,,,,,,,,,,,1.2283,6.527671654,,,,,,,,,,,,,,,,,,,,,,,,,,,,,,,,,,,,,,,,,,,,,,,,,,,,,,,,,,,,,,,,,,,,,,,,,,,,,,,,,,,,,,,,,,,
,,,,,,,610af0eb860dfb6aeb567a49,32,2023-07-20_20h37.54.234,templeton2A_SD_practice,2020.2.10,Win32,60,,,,,,,,,,,,,,,,,,,,,,1.2382,6.527671654,,,,,,,,,,,,,,,,,,,,,,,,,,,,,,,,,,,,,,,,,,,,,,,,,,,,,,,,,,,,,,,,,,,,,,,,,,,,,,,,,,,,,,,,,,,
,,,,,,,610af0eb860dfb6aeb567a49,32,2023-07-20_20h37.54.234,templeton2A_SD_practice,2020.2.10,Win32,60,,,,,,,,,,,,,,,,,,,,,,1.2468,6.527671654,,,,,,,,,,,,,,,,,,,,,,,,,,,,,,,,,,,,,,,,,,,,,,,,,,,,,,,,,,,,,,,,,,,,,,,,,,,,,,,,,,,,,,,,,,,
,,,,,,,610af0eb860dfb6aeb567a49,32,2023-07-20_20h37.54.234,templeton2A_SD_practice,2020.2.10,Win32,60,,,,,,,,,,,,,,,,,,,,,,1.2577,6.527671654,,,,,,,,,,,,,,,,,,,,,,,,,,,,,,,,,,,,,,,,,,,,,,,,,,,,,,,,,,,,,,,,,,,,,,,,,,,,,,,,,,,,,,,,,,,
,,,,,,,610af0eb860dfb6aeb567a49,32,2023-07-20_20h37.54.234,templeton2A_SD_practice,2020.2.10,Win32,60,,,,,,,,,,,,,,,,,,,,,,1.267,6.527671654,,,,,,,,,,,,,,,,,,,,,,,,,,,,,,,,,,,,,,,,,,,,,,,,,,,,,,,,,,,,,,,,,,,,,,,,,,,,,,,,,,,,,,,,,,,
,,,,,,,610af0eb860dfb6aeb567a49,32,2023-07-20_20h37.54.234,templeton2A_SD_practice,2020.2.10,Win32,60,,,,,,,,,,,,,,,,,,,,,,1.2789,6.527671654,,,,,,,,,,,,,,,,,,,,,,,,,,,,,,,,,,,,,,,,,,,,,,,,,,,,,,,,,,,,,,,,,,,,,,,,,,,,,,,,,,,,,,,,,,,
,,,,,,,610af0eb860dfb6aeb567a49,32,2023-07-20_20h37.54.234,templeton2A_SD_practice,2020.2.10,Win32,60,,,,,,,,,,,,,,,,,,,,,,1.2976,6.527671654,,,,,,,,,,,,,,,,,,,,,,,,,,,,,,,,,,,,,,,,,,,,,,,,,,,,,,,,,,,,,,,,,,,,,,,,,,,,,,,,,,,,,,,,,,,
,,,,,,,610af0eb860dfb6aeb567a49,32,2023-07-20_20h37.54.234,templeton2A_SD_practice,2020.2.10,Win32,60,,,,,,,,,,,,,,,,,,,,,,1.3104,6.527671654,,,,,,,,,,,,,,,,,,,,,,,,,,,,,,,,,,,,,,,,,,,,,,,,,,,,,,,,,,,,,,,,,,,,,,,,,,,,,,,,,,,,,,,,,,,
,,,,,,,610af0eb860dfb6aeb567a49,32,2023-07-20_20h37.54.234,templeton2A_SD_practice,2020.2.10,Win32,60,,,,,,,,,,,,,,,,,,,,,,1.3228,6.527671654,,,,,,,,,,,,,,,,,,,,,,,,,,,,,,,,,,,,,,,,,,,,,,,,,,,,,,,,,,,,,,,,,,,,,,,,,,,,,,,,,,,,,,,,,,,
,,,,,,,610af0eb860dfb6aeb567a49,32,2023-07-20_20h37.54.234,templeton2A_SD_practice,2020.2.10,Win32,60,,,,,,,,,,,,,,,,,,,,,,1.3359,6.527671654,,,,,,,,,,,,,,,,,,,,,,,,,,,,,,,,,,,,,,,,,,,,,,,,,,,,,,,,,,,,,,,,,,,,,,,,,,,,,,,,,,,,,,,,,,,
,,,,,,,610af0eb860dfb6aeb567a49,32,2023-07-20_20h37.54.234,templeton2A_SD_practice,2020.2.10,Win32,60,,,,,,,,,,,,,,,,,,,,,,1.3438,6.527671654,,,,,,,,,,,,,,,,,,,,,,,,,,,,,,,,,,,,,,,,,,,,,,,,,,,,,,,,,,,,,,,,,,,,,,,,,,,,,,,,,,,,,,,,,,,
,,,,,,,610af0eb860dfb6aeb567a49,32,2023-07-20_20h37.54.234,templeton2A_SD_practice,2020.2.10,Win32,60,,,,,,,,,,,,,,,,,,,,,,1.3538,6.527671654,,,,,,,,,,,,,,,,,,,,,,,,,,,,,,,,,,,,,,,,,,,,,,,,,,,,,,,,,,,,,,,,,,,,,,,,,,,,,,,,,,,,,,,,,,,
,,,,,,,610af0eb860dfb6aeb567a49,32,2023-07-20_20h37.54.234,templeton2A_SD_practice,2020.2.10,Win32,60,,,,,,,,,,,,,,,,,,,,,,1.3664,6.527671654,,,,,,,,,,,,,,,,,,,,,,,,,,,,,,,,,,,,,,,,,,,,,,,,,,,,,,,,,,,,,,,,,,,,,,,,,,,,,,,,,,,,,,,,,,,
,,,,,,,610af0eb860dfb6aeb567a49,32,2023-07-20_20h37.54.234,templeton2A_SD_practice,2020.2.10,Win32,60,,,,,,,,,,,,,,,,,,,,,,1.379,6.527671654,,,,,,,,,,,,,,,,,,,,,,,,,,,,,,,,,,,,,,,,,,,,,,,,,,,,,,,,,,,,,,,,,,,,,,,,,,,,,,,,,,,,,,,,,,,
,,,,,,,610af0eb860dfb6aeb567a49,32,2023-07-20_20h37.54.234,templeton2A_SD_practice,2020.2.10,Win32,60,,,,,,,,,,,,,,,,,,,,,,1.3928,6.527671654,,,,,,,,,,,,,,,,,,,,,,,,,,,,,,,,,,,,,,,,,,,,,,,,,,,,,,,,,,,,,,,,,,,,,,,,,,,,,,,,,,,,,,,,,,,
,,,,,,,610af0eb860dfb6aeb567a49,32,2023-07-20_20h37.54.234,templeton2A_SD_practice,2020.2.10,Win32,60,,,,,,,,,,,,,,,,,,,,,,1.4068,6.527671654,,,,,,,,,,,,,,,,,,,,,,,,,,,,,,,,,,,,,,,,,,,,,,,,,,,,,,,,,,,,,,,,,,,,,,,,,,,,,,,,,,,,,,,,,,,
,,,,,,,610af0eb860dfb6aeb567a49,32,2023-07-20_20h37.54.234,templeton2A_SD_practice,2020.2.10,Win32,60,,,,,,,,,,,,,,,,,,,,,,1.4196,6.527671654,,,,,,,,,,,,,,,,,,,,,,,,,,,,,,,,,,,,,,,,,,,,,,,,,,,,,,,,,,,,,,,,,,,,,,,,,,,,,,,,,,,,,,,,,,,
,,,,,,,610af0eb860dfb6aeb567a49,32,2023-07-20_20h37.54.234,templeton2A_SD_practice,2020.2.10,Win32,60,,,,,,,,,,,,,,,,,,,,,,1.4296,6.527671654,,,,,,,,,,,,,,,,,,,,,,,,,,,,,,,,,,,,,,,,,,,,,,,,,,,,,,,,,,,,,,,,,,,,,,,,,,,,,,,,,,,,,,,,,,,
,,,,,,,610af0eb860dfb6aeb567a49,32,2023-07-20_20h37.54.234,templeton2A_SD_practice,2020.2.10,Win32,60,,,,,,,,,,,,,,,,,,,,,,1.4425,6.527671654,,,,,,,,,,,,,,,,,,,,,,,,,,,,,,,,,,,,,,,,,,,,,,,,,,,,,,,,,,,,,,,,,,,,,,,,,,,,,,,,,,,,,,,,,,,
,,,,,,,610af0eb860dfb6aeb567a49,32,2023-07-20_20h37.54.234,templeton2A_SD_practice,2020.2.10,Win32,60,,,,,,,,,,,,,,,,,,,,,,1.4563,6.527671654,,,,,,,,,,,,,,,,,,,,,,,,,,,,,,,,,,,,,,,,,,,,,,,,,,,,,,,,,,,,,,,,,,,,,,,,,,,,,,,,,,,,,,,,,,,
,,,,,,,610af0eb860dfb6aeb567a49,32,2023-07-20_20h37.54.234,templeton2A_SD_practice,2020.2.10,Win32,60,,,,,,,,,,,,,,,,,,,,,,1.4693,6.527671654,,,,,,,,,,,,,,,,,,,,,,,,,,,,,,,,,,,,,,,,,,,,,,,,,,,,,,,,,,,,,,,,,,,,,,,,,,,,,,,,,,,,,,,,,,,
,,,,,,,610af0eb860dfb6aeb567a49,32,2023-07-20_20h37.54.234,templeton2A_SD_practice,2020.2.10,Win32,60,,,,,,,,,,,,,,,,,,,,,,1.4825,6.527671654,,,,,,,,,,,,,,,,,,,,,,,,,,,,,,,,,,,,,,,,,,,,,,,,,,,,,,,,,,,,,,,,,,,,,,,,,,,,,,,,,,,,,,,,,,,
,,,,,,,610af0eb860dfb6aeb567a49,32,2023-07-20_20h37.54.234,templeton2A_SD_practice,2020.2.10,Win32,60,,,,,,,,,,,,,,,,,,,,,,1.492,6.527671654,,,,,,,,,,,,,,,,,,,,,,,,,,,,,,,,,,,,,,,,,,,,,,,,,,,,,,,,,,,,,,,,,,,,,,,,,,,,,,,,,,,,,,,,,,,
,,,,,,,610af0eb860dfb6aeb567a49,32,2023-07-20_20h37.54.234,templeton2A_SD_practice,2020.2.10,Win32,60,,,,,,,,,,,,,,,,,,,,,,1.5003,6.527671654,,,,,,,,,,,,,,,,,,,,,,,,,,,,,,,,,,,,,,,,,,,,,,,,,,,,,,,,,,,,,,,,,,,,,,,,,,,,,,,,,,,,,,,,,,,
,,,,,,,610af0eb860dfb6aeb567a49,32,2023-07-20_20h37.54.234,templeton2A_SD_practice,2020.2.10,Win32,60,,,,,,,,,,,,,,,,,,,,,,1.5164,6.527671654,,,,,,,,,,,,,,,,,,,,,,,,,,,,,,,,,,,,,,,,,,,,,,,,,,,,,,,,,,,,,,,,,,,,,,,,,,,,,,,,,,,,,,,,,,,
,,,,,,,610af0eb860dfb6aeb567a49,32,2023-07-20_20h37.54.234,templeton2A_SD_practice,2020.2.10,Win32,60,,,,,,,,,,,,,,,,,,,,,,1.5283,6.527671654,,,,,,,,,,,,,,,,,,,,,,,,,,,,,,,,,,,,,,,,,,,,,,,,,,,,,,,,,,,,,,,,,,,,,,,,,,,,,,,,,,,,,,,,,,,
,,,,,,,610af0eb860dfb6aeb567a49,32,2023-07-20_20h37.54.234,templeton2A_SD_practice,2020.2.10,Win32,60,,,,,,,,,,,,,,,,,,,,,,1.5412,6.527671654,,,,,,,,,,,,,,,,,,,,,,,,,,,,,,,,,,,,,,,,,,,,,,,,,,,,,,,,,,,,,,,,,,,,,,,,,,,,,,,,,,,,,,,,,,,
,,,,,,,610af0eb860dfb6aeb567a49,32,2023-07-20_20h37.54.234,templeton2A_SD_practice,2020.2.10,Win32,60,,,,,,,,,,,,,,,,,,,,,,1.555,6.527671654,,,,,,,,,,,,,,,,,,,,,,,,,,,,,,,,,,,,,,,,,,,,,,,,,,,,,,,,,,,,,,,,,,,,,,,,,,,,,,,,,,,,,,,,,,,
,,,,,,,610af0eb860dfb6aeb567a49,32,2023-07-20_20h37.54.234,templeton2A_SD_practice,2020.2.10,Win32,60,,,,,,,,,,,,,,,,,,,,,,1.5677,6.527671654,,,,,,,,,,,,,,,,,,,,,,,,,,,,,,,,,,,,,,,,,,,,,,,,,,,,,,,,,,,,,,,,,,,,,,,,,,,,,,,,,,,,,,,,,,,
,,,,,,,610af0eb860dfb6aeb567a49,32,2023-07-20_20h37.54.234,templeton2A_SD_practice,2020.2.10,Win32,60,,,,,,,,,,,,,,,,,,,,,,1.5766,6.527671654,,,,,,,,,,,,,,,,,,,,,,,,,,,,,,,,,,,,,,,,,,,,,,,,,,,,,,,,,,,,,,,,,,,,,,,,,,,,,,,,,,,,,,,,,,,
,,,,,,,610af0eb860dfb6aeb567a49,32,2023-07-20_20h37.54.234,templeton2A_SD_practice,2020.2.10,Win32,60,,,,,,,,,,,,,,,,,,,,,,1.5856,6.527671654,,,,,,,,,,,,,,,,,,,,,,,,,,,,,,,,,,,,,,,,,,,,,,,,,,,,,,,,,,,,,,,,,,,,,,,,,,,,,,,,,,,,,,,,,,,
,,,,,,,610af0eb860dfb6aeb567a49,32,2023-07-20_20h37.54.234,templeton2A_SD_practice,2020.2.10,Win32,60,,,,,,,,,,,,,,,,,,,,,,1.5943,6.527671654,,,,,,,,,,,,,,,,,,,,,,,,,,,,,,,,,,,,,,,,,,,,,,,,,,,,,,,,,,,,,,,,,,,,,,,,,,,,,,,,,,,,,,,,,,,
,,,,,,,610af0eb860dfb6aeb567a49,32,2023-07-20_20h37.54.234,templeton2A_SD_practice,2020.2.10,Win32,60,,,,,,,,,,,,,,,,,,,,,,1.6098,6.527671654,,,,,,,,,,,,,,,,,,,,,,,,,,,,,,,,,,,,,,,,,,,,,,,,,,,,,,,,,,,,,,,,,,,,,,,,,,,,,,,,,,,,,,,,,,,
,,,,,,,610af0eb860dfb6aeb567a49,32,2023-07-20_20h37.54.234,templeton2A_SD_practice,2020.2.10,Win32,60,,,,,,,,,,,,,,,,,,,,,,1.6237,6.527671654,,,,,,,,,,,,,,,,,,,,,,,,,,,,,,,,,,,,,,,,,,,,,,,,,,,,,,,,,,,,,,,,,,,,,,,,,,,,,,,,,,,,,,,,,,,
,,,,,,,610af0eb860dfb6aeb567a49,32,2023-07-20_20h37.54.234,templeton2A_SD_practice,2020.2.10,Win32,60,,,,,,,,,,,,,,,,,,,,,,1.6359,6.527671654,,,,,,,,,,,,,,,,,,,,,,,,,,,,,,,,,,,,,,,,,,,,,,,,,,,,,,,,,,,,,,,,,,,,,,,,,,,,,,,,,,,,,,,,,,,
,,,,,,,610af0eb860dfb6aeb567a49,32,2023-07-20_20h37.54.234,templeton2A_SD_practice,2020.2.10,Win32,60,,,,,,,,,,,,,,,,,,,,,,1.6447,6.527671654,,,,,,,,,,,,,,,,,,,,,,,,,,,,,,,,,,,,,,,,,,,,,,,,,,,,,,,,,,,,,,,,,,,,,,,,,,,,,,,,,,,,,,,,,,,
,,,,,,,610af0eb860dfb6aeb567a49,32,2023-07-20_20h37.54.234,templeton2A_SD_practice,2020.2.10,Win32,60,,,,,,,,,,,,,,,,,,,,,,1.6573,6.527671654,,,,,,,,,,,,,,,,,,,,,,,,,,,,,,,,,,,,,,,,,,,,,,,,,,,,,,,,,,,,,,,,,,,,,,,,,,,,,,,,,,,,,,,,,,,
,,,,,,,610af0eb860dfb6aeb567a49,32,2023-07-20_20h37.54.234,templeton2A_SD_practice,2020.2.10,Win32,60,,,,,,,,,,,,,,,,,,,,,,1.6659,6.527671654,,,,,,,,,,,,,,,,,,,,,,,,,,,,,,,,,,,,,,,,,,,,,,,,,,,,,,,,,,,,,,,,,,,,,,,,,,,,,,,,,,,,,,,,,,,
,,,,,,,610af0eb860dfb6aeb567a49,32,2023-07-20_20h37.54.234,templeton2A_SD_practice,2020.2.10,Win32,60,,,,,,,,,,,,,,,,,,,,,,1.6758,6.527671654,,,,,,,,,,,,,,,,,,,,,,,,,,,,,,,,,,,,,,,,,,,,,,,,,,,,,,,,,,,,,,,,,,,,,,,,,,,,,,,,,,,,,,,,,,,
,,,,,,,610af0eb860dfb6aeb567a49,32,2023-07-20_20h37.54.234,templeton2A_SD_practice,2020.2.10,Win32,60,,,,,,,,,,,,,,,,,,,,,,1.6873,6.527671654,,,,,,,,,,,,,,,,,,,,,,,,,,,,,,,,,,,,,,,,,,,,,,,,,,,,,,,,,,,,,,,,,,,,,,,,,,,,,,,,,,,,,,,,,,,
,,,,,,,610af0eb860dfb6aeb567a49,32,2023-07-20_20h37.54.234,templeton2A_SD_practice,2020.2.10,Win32,60,,,,,,,,,,,,,,,,,,,,,,1.7043,6.527671654,,,,,,,,,,,,,,,,,,,,,,,,,,,,,,,,,,,,,,,,,,,,,,,,,,,,,,,,,,,,,,,,,,,,,,,,,,,,,,,,,,,,,,,,,,,
,,,,,,,610af0eb860dfb6aeb567a49,32,2023-07-20_20h37.54.234,templeton2A_SD_practice,2020.2.10,Win32,60,,,,,,,,,,,,,,,,,,,,,,1.7167,6.527671654,,,,,,,,,,,,,,,,,,,,,,,,,,,,,,,,,,,,,,,,,,,,,,,,,,,,,,,,,,,,,,,,,,,,,,,,,,,,,,,,,,,,,,,,,,,
,,,,,,,610af0eb860dfb6aeb567a49,32,2023-07-20_20h37.54.234,templeton2A_SD_practice,2020.2.10,Win32,60,,,,,,,,,,,,,,,,,,,,,,1.7248,6.527671654,,,,,,,,,,,,,,,,,,,,,,,,,,,,,,,,,,,,,,,,,,,,,,,,,,,,,,,,,,,,,,,,,,,,,,,,,,,,,,,,,,,,,,,,,,,
,,,,,,,610af0eb860dfb6aeb567a49,32,2023-07-20_20h37.54.234,templeton2A_SD_practice,2020.2.10,Win32,60,,,,,,,,,,,,,,,,,,,,,,1.7333,6.527671654,,,,,,,,,,,,,,,,,,,,,,,,,,,,,,,,,,,,,,,,,,,,,,,,,,,,,,,,,,,,,,,,,,,,,,,,,,,,,,,,,,,,,,,,,,,
,,,,,,,610af0eb860dfb6aeb567a49,32,2023-07-20_20h37.54.234,templeton2A_SD_practice,2020.2.10,Win32,60,,,,,,,,,,,,,,,,,,,,,,1.7498,6.527671654,,,,,,,,,,,,,,,,,,,,,,,,,,,,,,,,,,,,,,,,,,,,,,,,,,,,,,,,,,,,,,,,,,,,,,,,,,,,,,,,,,,,,,,,,,,
,,,,,,,610af0eb860dfb6aeb567a49,32,2023-07-20_20h37.54.234,templeton2A_SD_practice,2020.2.10,Win32,60,,,,,,,,,,,,,,,,,,,,,,1.7603,6.527671654,,,,,,,,,,,,,,,,,,,,,,,,,,,,,,,,,,,,,,,,,,,,,,,,,,,,,,,,,,,,,,,,,,,,,,,,,,,,,,,,,,,,,,,,,,,
,,,,,,,610af0eb860dfb6aeb567a49,32,2023-07-20_20h37.54.234,templeton2A_SD_practice,2020.2.10,Win32,60,,,,,,,,,,,,,,,,,,,,,,1.7724,6.527671654,,,,,,,,,,,,,,,,,,,,,,,,,,,,,,,,,,,,,,,,,,,,,,,,,,,,,,,,,,,,,,,,,,,,,,,,,,,,,,,,,,,,,,,,,,,
,,,,,,,610af0eb860dfb6aeb567a49,32,2023-07-20_20h37.54.234,templeton2A_SD_practice,2020.2.10,Win32,60,,,,,,,,,,,,,,,,,,,,,,1.7864,6.527671654,,,,,,,,,,,,,,,,,,,,,,,,,,,,,,,,,,,,,,,,,,,,,,,,,,,,,,,,,,,,,,,,,,,,,,,,,,,,,,,,,,,,,,,,,,,
,,,,,,,610af0eb860dfb6aeb567a49,32,2023-07-20_20h37.54.234,templeton2A_SD_practice,2020.2.10,Win32,60,,,,,,,,,,,,,,,,,,,,,,1.7989,6.527671654,,,,,,,,,,,,,,,,,,,,,,,,,,,,,,,,,,,,,,,,,,,,,,,,,,,,,,,,,,,,,,,,,,,,,,,,,,,,,,,,,,,,,,,,,,,
,,,,,,,610af0eb860dfb6aeb567a49,32,2023-07-20_20h37.54.234,templeton2A_SD_practice,2020.2.10,Win32,60,,,,,,,,,,,,,,,,,,,,,,1.8115,6.527671654,,,,,,,,,,,,,,,,,,,,,,,,,,,,,,,,,,,,,,,,,,,,,,,,,,,,,,,,,,,,,,,,,,,,,,,,,,,,,,,,,,,,,,,,,,,
,,,,,,,610af0eb860dfb6aeb567a49,32,2023-07-20_20h37.54.234,templeton2A_SD_practice,2020.2.10,Win32,60,,,,,,,,,,,,,,,,,,,,,,1.825,6.527671654,,,,,,,,,,,,,,,,,,,,,,,,,,,,,,,,,,,,,,,,,,,,,,,,,,,,,,,,,,,,,,,,,,,,,,,,,,,,,,,,,,,,,,,,,,,
,,,,,,,610af0eb860dfb6aeb567a49,32,2023-07-20_20h37.54.234,templeton2A_SD_practice,2020.2.10,Win32,60,,,,,,,,,,,,,,,,,,,,,,1.8356,6.527671654,,,,,,,,,,,,,,,,,,,,,,,,,,,,,,,,,,,,,,,,,,,,,,,,,,,,,,,,,,,,,,,,,,,,,,,,,,,,,,,,,,,,,,,,,,,
,,,,,,,610af0eb860dfb6aeb567a49,32,2023-07-20_20h37.54.234,templeton2A_SD_practice,2020.2.10,Win32,60,,,,,,,,,,,,,,,,,,,,,,1.8465,6.527671654,,,,,,,,,,,,,,,,,,,,,,,,,,,,,,,,,,,,,,,,,,,,,,,,,,,,,,,,,,,,,,,,,,,,,,,,,,,,,,,,,,,,,,,,,,,
,,,,,,,610af0eb860dfb6aeb567a49,32,2023-07-20_20h37.54.234,templeton2A_SD_practice,2020.2.10,Win32,60,,,,,,,,,,,,,,,,,,,,,,1.8556,6.527671654,,,,,,,,,,,,,,,,,,,,,,,,,,,,,,,,,,,,,,,,,,,,,,,,,,,,,,,,,,,,,,,,,,,,,,,,,,,,,,,,,,,,,,,,,,,
,,,,,,,610af0eb860dfb6aeb567a49,32,2023-07-20_20h37.54.234,templeton2A_SD_practice,2020.2.10,Win32,60,,,,,,,,,,,,,,,,,,,,,,1.8685,6.527671654,,,,,,,,,,,,,,,,,,,,,,,,,,,,,,,,,,,,,,,,,,,,,,,,,,,,,,,,,,,,,,,,,,,,,,,,,,,,,,,,,,,,,,,,,,,
,,,,,,,610af0eb860dfb6aeb567a49,32,2023-07-20_20h37.54.234,templeton2A_SD_practice,2020.2.10,Win32,60,,,,,,,,,,,,,,,,,,,,,,1.8793,6.527671654,,,,,,,,,,,,,,,,,,,,,,,,,,,,,,,,,,,,,,,,,,,,,,,,,,,,,,,,,,,,,,,,,,,,,,,,,,,,,,,,,,,,,,,,,,,
,,,,,,,610af0eb860dfb6aeb567a49,32,2023-07-20_20h37.54.234,templeton2A_SD_practice,2020.2.10,Win32,60,,,,,,,,,,,,,,,,,,,,,,1.8889,6.527671654,,,,,,,,,,,,,,,,,,,,,,,,,,,,,,,,,,,,,,,,,,,,,,,,,,,,,,,,,,,,,,,,,,,,,,,,,,,,,,,,,,,,,,,,,,,
,,,,,,,610af0eb860dfb6aeb567a49,32,2023-07-20_20h37.54.234,templeton2A_SD_practice,2020.2.10,Win32,60,,,,,,,,,,,,,,,,,,,,,,1.8997,6.527671654,,,,,,,,,,,,,,,,,,,,,,,,,,,,,,,,,,,,,,,,,,,,,,,,,,,,,,,,,,,,,,,,,,,,,,,,,,,,,,,,,,,,,,,,,,,
,,,,,,,610af0eb860dfb6aeb567a49,32,2023-07-20_20h37.54.234,templeton2A_SD_practice,2020.2.10,Win32,60,,,,,,,,,,,,,,,,,,,,,,1.9063,6.527671654,,,,,,,,,,,,,,,,,,,,,,,,,,,,,,,,,,,,,,,,,,,,,,,,,,,,,,,,,,,,,,,,,,,,,,,,,,,,,,,,,,,,,,,,,,,
,,,,,,,610af0eb860dfb6aeb567a49,32,2023-07-20_20h37.54.234,templeton2A_SD_practice,2020.2.10,Win32,60,,,,,,,,,,,,,,,,,,,,,,1.9205,6.527671654,,,,,,,,,,,,,,,,,,,,,,,,,,,,,,,,,,,,,,,,,,,,,,,,,,,,,,,,,,,,,,,,,,,,,,,,,,,,,,,,,,,,,,,,,,,
,,,,,,,610af0eb860dfb6aeb567a49,32,2023-07-20_20h37.54.234,templeton2A_SD_practice,2020.2.10,Win32,60,,,,,,,,,,,,,,,,,,,,,,1.9329,6.527671654,,,,,,,,,,,,,,,,,,,,,,,,,,,,,,,,,,,,,,,,,,,,,,,,,,,,,,,,,,,,,,,,,,,,,,,,,,,,,,,,,,,,,,,,,,,
,,,,,,,610af0eb860dfb6aeb567a49,32,2023-07-20_20h37.54.234,templeton2A_SD_practice,2020.2.10,Win32,60,,,,,,,,,,,,,,,,,,,,,,1.9446,6.527671654,,,,,,,,,,,,,,,,,,,,,,,,,,,,,,,,,,,,,,,,,,,,,,,,,,,,,,,,,,,,,,,,,,,,,,,,,,,,,,,,,,,,,,,,,,,
,,,,,,,610af0eb860dfb6aeb567a49,32,2023-07-20_20h37.54.234,templeton2A_SD_practice,2020.2.10,Win32,60,,,,,,,,,,,,,,,,,,,,,,1.9565,6.527671654,,,,,,,,,,,,,,,,,,,,,,,,,,,,,,,,,,,,,,,,,,,,,,,,,,,,,,,,,,,,,,,,,,,,,,,,,,,,,,,,,,,,,,,,,,,
,,,,,,,610af0eb860dfb6aeb567a49,32,2023-07-20_20h37.54.234,templeton2A_SD_practice,2020.2.10,Win32,60,,,,,,,,,,,,,,,,,,,,,,1.9681,6.527671654,,,,,,,,,,,,,,,,,,,,,,,,,,,,,,,,,,,,,,,,,,,,,,,,,,,,,,,,,,,,,,,,,,,,,,,,,,,,,,,,,,,,,,,,,,,
,,,,,,,610af0eb860dfb6aeb567a49,32,2023-07-20_20h37.54.234,templeton2A_SD_practice,2020.2.10,Win32,60,,,,,,,,,,,,,,,,,,,,,,1.9771,6.527671654,,,,,,,,,,,,,,,,,,,,,,,,,,,,,,,,,,,,,,,,,,,,,,,,,,,,,,,,,,,,,,,,,,,,,,,,,,,,,,,,,,,,,,,,,,,
,,,,,,,610af0eb860dfb6aeb567a49,32,2023-07-20_20h37.54.234,templeton2A_SD_practice,2020.2.10,Win32,60,,,,,,,,,,,,,,,,,,,,,,1.984,6.527671654,,,,,,,,,,,,,,,,,,,,,,,,,,,,,,,,,,,,,,,,,,,,,,,,,,,,,,,,,,,,,,,,,,,,,,,,,,,,,,,,,,,,,,,,,,,
,,,,,,,610af0eb860dfb6aeb567a49,32,2023-07-20_20h37.54.234,templeton2A_SD_practice,2020.2.10,Win32,60,,,,,,,,,,,,,,,,,,,,,,1.999,6.527671654,,,,,,,,,,,,,,,,,,,,,,,,,,,,,,,,,,,,,,,,,,,,,,,,,,,,,,,,,,,,,,,,,,,,,,,,,,,,,,,,,,,,,,,,,,,
,,,,,,,610af0eb860dfb6aeb567a49,32,2023-07-20_20h37.54.234,templeton2A_SD_practice,2020.2.10,Win32,60,,,,,,,,,,,,,,,,,,,,,,2.0107,6.527671654,,,,,,,,,,,,,,,,,,,,,,,,,,,,,,,,,,,,,,,,,,,,,,,,,,,,,,,,,,,,,,,,,,,,,,,,,,,,,,,,,,,,,,,,,,,
,,,,,,,610af0eb860dfb6aeb567a49,32,2023-07-20_20h37.54.234,templeton2A_SD_practice,2020.2.10,Win32,60,,,,,,,,,,,,,,,,,,,,,,2.0204,6.527671654,,,,,,,,,,,,,,,,,,,,,,,,,,,,,,,,,,,,,,,,,,,,,,,,,,,,,,,,,,,,,,,,,,,,,,,,,,,,,,,,,,,,,,,,,,,
,,,,,,,610af0eb860dfb6aeb567a49,32,2023-07-20_20h37.54.234,templeton2A_SD_practice,2020.2.10,Win32,60,,,,,,,,,,,,,,,,,,,,,,2.0328,6.527671654,,,,,,,,,,,,,,,,,,,,,,,,,,,,,,,,,,,,,,,,,,,,,,,,,,,,,,,,,,,,,,,,,,,,,,,,,,,,,,,,,,,,,,,,,,,
,,,,,,,610af0eb860dfb6aeb567a49,32,2023-07-20_20h37.54.234,templeton2A_SD_practice,2020.2.10,Win32,60,,,,,,,,,,,,,,,,,,,,,,2.0395,6.527671654,,,,,,,,,,,,,,,,,,,,,,,,,,,,,,,,,,,,,,,,,,,,,,,,,,,,,,,,,,,,,,,,,,,,,,,,,,,,,,,,,,,,,,,,,,,
,,,,,,,610af0eb860dfb6aeb567a49,32,2023-07-20_20h37.54.234,templeton2A_SD_practice,2020.2.10,Win32,60,,,,,,,,,,,,,,,,,,,,,,2.0554,6.527671654,,,,,,,,,,,,,,,,,,,,,,,,,,,,,,,,,,,,,,,,,,,,,,,,,,,,,,,,,,,,,,,,,,,,,,,,,,,,,,,,,,,,,,,,,,,
,,,,,,,610af0eb860dfb6aeb567a49,32,2023-07-20_20h37.54.234,templeton2A_SD_practice,2020.2.10,Win32,60,,,,,,,,,,,,,,,,,,,,,,2.0667,6.527671654,,,,,,,,,,,,,,,,,,,,,,,,,,,,,,,,,,,,,,,,,,,,,,,,,,,,,,,,,,,,,,,,,,,,,,,,,,,,,,,,,,,,,,,,,,,
,,,,,,,610af0eb860dfb6aeb567a49,32,2023-07-20_20h37.54.234,templeton2A_SD_practice,2020.2.10,Win32,60,,,,,,,,,,,,,,,,,,,,,,2.0788,6.527671654,,,,,,,,,,,,,,,,,,,,,,,,,,,,,,,,,,,,,,,,,,,,,,,,,,,,,,,,,,,,,,,,,,,,,,,,,,,,,,,,,,,,,,,,,,,
,,,,,,,610af0eb860dfb6aeb567a49,32,2023-07-20_20h37.54.234,templeton2A_SD_practice,2020.2.10,Win32,60,,,,,,,,,,,,,,,,,,,,,,2.0892,6.527671654,,,,,,,,,,,,,,,,,,,,,,,,,,,,,,,,,,,,,,,,,,,,,,,,,,,,,,,,,,,,,,,,,,,,,,,,,,,,,,,,,,,,,,,,,,,
,,,,,,,610af0eb860dfb6aeb567a49,32,2023-07-20_20h37.54.234,templeton2A_SD_practice,2020.2.10,Win32,60,,,,,,,,,,,,,,,,,,,,,,2.1012,6.527671654,,,,,,,,,,,,,,,,,,,,,,,,,,,,,,,,,,,,,,,,,,,,,,,,,,,,,,,,,,,,,,,,,,,,,,,,,,,,,,,,,,,,,,,,,,,
,,,,,,,610af0eb860dfb6aeb567a49,32,2023-07-20_20h37.54.234,templeton2A_SD_practice,2020.2.10,Win32,60,,,,,,,,,,,,,,,,,,,,,,2.1137,6.527671654,,,,,,,,,,,,,,,,,,,,,,,,,,,,,,,,,,,,,,,,,,,,,,,,,,,,,,,,,,,,,,,,,,,,,,,,,,,,,,,,,,,,,,,,,,,
,,,,,,,610af0eb860dfb6aeb567a49,32,2023-07-20_20h37.54.234,templeton2A_SD_practice,2020.2.10,Win32,60,,,,,,,,,,,,,,,,,,,,,,2.1265,6.527671654,,,,,,,,,,,,,,,,,,,,,,,,,,,,,,,,,,,,,,,,,,,,,,,,,,,,,,,,,,,,,,,,,,,,,,,,,,,,,,,,,,,,,,,,,,,
,,,,,,,610af0eb860dfb6aeb567a49,32,2023-07-20_20h37.54.234,templeton2A_SD_practice,2020.2.10,Win32,60,,,,,,,,,,,,,,,,,,,,,,2.1391,6.527671654,,,,,,,,,,,,,,,,,,,,,,,,,,,,,,,,,,,,,,,,,,,,,,,,,,,,,,,,,,,,,,,,,,,,,,,,,,,,,,,,,,,,,,,,,,,
,,,,,,,610af0eb860dfb6aeb567a49,32,2023-07-20_20h37.54.234,templeton2A_SD_practice,2020.2.10,Win32,60,,,,,,,,,,,,,,,,,,,,,,2.1524,6.527671654,,,,,,,,,,,,,,,,,,,,,,,,,,,,,,,,,,,,,,,,,,,,,,,,,,,,,,,,,,,,,,,,,,,,,,,,,,,,,,,,,,,,,,,,,,,
,,,,,,,610af0eb860dfb6aeb567a49,32,2023-07-20_20h37.54.234,templeton2A_SD_practice,2020.2.10,Win32,60,,,,,,,,,,,,,,,,,,,,,,2.1634,6.527671654,,,,,,,,,,,,,,,,,,,,,,,,,,,,,,,,,,,,,,,,,,,,,,,,,,,,,,,,,,,,,,,,,,,,,,,,,,,,,,,,,,,,,,,,,,,
,,,,,,,610af0eb860dfb6aeb567a49,32,2023-07-20_20h37.54.234,templeton2A_SD_practice,2020.2.10,Win32,60,,,,,,,,,,,,,,,,,,,,,,2.1762,6.527671654,,,,,,,,,,,,,,,,,,,,,,,,,,,,,,,,,,,,,,,,,,,,,,,,,,,,,,,,,,,,,,,,,,,,,,,,,,,,,,,,,,,,,,,,,,,
,,,,,,,610af0eb860dfb6aeb567a49,32,2023-07-20_20h37.54.234,templeton2A_SD_practice,2020.2.10,Win32,60,,,,,,,,,,,,,,,,,,,,,,2.1884,6.527671654,,,,,,,,,,,,,,,,,,,,,,,,,,,,,,,,,,,,,,,,,,,,,,,,,,,,,,,,,,,,,,,,,,,,,,,,,,,,,,,,,,,,,,,,,,,
,,,,,,,610af0eb860dfb6aeb567a49,32,2023-07-20_20h37.54.234,templeton2A_SD_practice,2020.2.10,Win32,60,,,,,,,,,,,,,,,,,,,,,,2.1965,6.527671654,,,,,,,,,,,,,,,,,,,,,,,,,,,,,,,,,,,,,,,,,,,,,,,,,,,,,,,,,,,,,,,,,,,,,,,,,,,,,,,,,,,,,,,,,,,
,,,,,,,610af0eb860dfb6aeb567a49,32,2023-07-20_20h37.54.234,templeton2A_SD_practice,2020.2.10,Win32,60,,,,,,,,,,,,,,,,,,,,,,2.2087,6.527671654,,,,,,,,,,,,,,,,,,,,,,,,,,,,,,,,,,,,,,,,,,,,,,,,,,,,,,,,,,,,,,,,,,,,,,,,,,,,,,,,,,,,,,,,,,,
,,,,,,,610af0eb860dfb6aeb567a49,32,2023-07-20_20h37.54.234,templeton2A_SD_practice,2020.2.10,Win32,60,,,,,,,,,,,,,,,,,,,,,,2.2174,6.527671654,,,,,,,,,,,,,,,,,,,,,,,,,,,,,,,,,,,,,,,,,,,,,,,,,,,,,,,,,,,,,,,,,,,,,,,,,,,,,,,,,,,,,,,,,,,
,,,,,,,610af0eb860dfb6aeb567a49,32,2023-07-20_20h37.54.234,templeton2A_SD_practice,2020.2.10,Win32,60,,,,,,,,,,,,,,,,,,,,,,2.2269,6.527671654,,,,,,,,,,,,,,,,,,,,,,,,,,,,,,,,,,,,,,,,,,,,,,,,,,,,,,,,,,,,,,,,,,,,,,,,,,,,,,,,,,,,,,,,,,,
,,,,,,,610af0eb860dfb6aeb567a49,32,2023-07-20_20h37.54.234,templeton2A_SD_practice,2020.2.10,Win32,60,,,,,,,,,,,,,,,,,,,,,,2.2432,6.527671654,,,,,,,,,,,,,,,,,,,,,,,,,,,,,,,,,,,,,,,,,,,,,,,,,,,,,,,,,,,,,,,,,,,,,,,,,,,,,,,,,,,,,,,,,,,
,,,,,,,610af0eb860dfb6aeb567a49,32,2023-07-20_20h37.54.234,templeton2A_SD_practice,2020.2.10,Win32,60,,,,,,,,,,,,,,,,,,,,,,2.256,6.527671654,,,,,,,,,,,,,,,,,,,,,,,,,,,,,,,,,,,,,,,,,,,,,,,,,,,,,,,,,,,,,,,,,,,,,,,,,,,,,,,,,,,,,,,,,,,
,,,,,,,610af0eb860dfb6aeb567a49,32,2023-07-20_20h37.54.234,templeton2A_SD_practice,2020.2.10,Win32,60,,,,,,,,,,,,,,,,,,,,,,2.264,6.527671654,,,,,,,,,,,,,,,,,,,,,,,,,,,,,,,,,,,,,,,,,,,,,,,,,,,,,,,,,,,,,,,,,,,,,,,,,,,,,,,,,,,,,,,,,,,
,,,,,,,610af0eb860dfb6aeb567a49,32,2023-07-20_20h37.54.234,templeton2A_SD_practice,2020.2.10,Win32,60,,,,,,,,,,,,,,,,,,,,,,2.2734,6.527671654,,,,,,,,,,,,,,,,,,,,,,,,,,,,,,,,,,,,,,,,,,,,,,,,,,,,,,,,,,,,,,,,,,,,,,,,,,,,,,,,,,,,,,,,,,,
,,,,,,,610af0eb860dfb6aeb567a49,32,2023-07-20_20h37.54.234,templeton2A_SD_practice,2020.2.10,Win32,60,,,,,,,,,,,,,,,,,,,,,,2.2869,6.527671654,,,,,,,,,,,,,,,,,,,,,,,,,,,,,,,,,,,,,,,,,,,,,,,,,,,,,,,,,,,,,,,,,,,,,,,,,,,,,,,,,,,,,,,,,,,
,,,,,,,610af0eb860dfb6aeb567a49,32,2023-07-20_20h37.54.234,templeton2A_SD_practice,2020.2.10,Win32,60,,,,,,,,,,,,,,,,,,,,,,2.2998,6.527671654,,,,,,,,,,,,,,,,,,,,,,,,,,,,,,,,,,,,,,,,,,,,,,,,,,,,,,,,,,,,,,,,,,,,,,,,,,,,,,,,,,,,,,,,,,,
,,,,,,,610af0eb860dfb6aeb567a49,32,2023-07-20_20h37.54.234,templeton2A_SD_practice,2020.2.10,Win32,60,,,,,,,,,,,,,,,,,,,,,,2.3131,6.527671654,,,,,,,,,,,,,,,,,,,,,,,,,,,,,,,,,,,,,,,,,,,,,,,,,,,,,,,,,,,,,,,,,,,,,,,,,,,,,,,,,,,,,,,,,,,
,,,,,,,610af0eb860dfb6aeb567a49,32,2023-07-20_20h37.54.234,templeton2A_SD_practice,2020.2.10,Win32,60,,,,,,,,,,,,,,,,,,,,,,2.3257,6.527671654,,,,,,,,,,,,,,,,,,,,,,,,,,,,,,,,,,,,,,,,,,,,,,,,,,,,,,,,,,,,,,,,,,,,,,,,,,,,,,,,,,,,,,,,,,,
,,,,,,,610af0eb860dfb6aeb567a49,32,2023-07-20_20h37.54.234,templeton2A_SD_practice,2020.2.10,Win32,60,,,,,,,,,,,,,,,,,,,,,,2.3388,6.527671654,,,,,,,,,,,,,,,,,,,,,,,,,,,,,,,,,,,,,,,,,,,,,,,,,,,,,,,,,,,,,,,,,,,,,,,,,,,,,,,,,,,,,,,,,,,
,,,,,,,610af0eb860dfb6aeb567a49,32,2023-07-20_20h37.54.234,templeton2A_SD_practice,2020.2.10,Win32,60,,,,,,,,,,,,,,,,,,,,,,2.3522,6.527671654,,,,,,,,,,,,,,,,,,,,,,,,,,,,,,,,,,,,,,,,,,,,,,,,,,,,,,,,,,,,,,,,,,,,,,,,,,,,,,,,,,,,,,,,,,,
,,,,,,,610af0eb860dfb6aeb567a49,32,2023-07-20_20h37.54.234,templeton2A_SD_practice,2020.2.10,Win32,60,,,,,,,,,,,,,,,,,,,,,,2.365,6.527671654,,,,,,,,,,,,,,,,,,,,,,,,,,,,,,,,,,,,,,,,,,,,,,,,,,,,,,,,,,,,,,,,,,,,,,,,,,,,,,,,,,,,,,,,,,,
,,,,,,,610af0eb860dfb6aeb567a49,32,2023-07-20_20h37.54.234,templeton2A_SD_practice,2020.2.10,Win32,60,,,,,,,,,,,,,,,,,,,,,,2.3779,6.527671654,,,,,,,,,,,,,,,,,,,,,,,,,,,,,,,,,,,,,,,,,,,,,,,,,,,,,,,,,,,,,,,,,,,,,,,,,,,,,,,,,,,,,,,,,,,
,,,,,,,610af0eb860dfb6aeb567a49,32,2023-07-20_20h37.54.234,templeton2A_SD_practice,2020.2.10,Win32,60,,,,,,,,,,,,,,,,,,,,,,2.39,6.527671654,,,,,,,,,,,,,,,,,,,,,,,,,,,,,,,,,,,,,,,,,,,,,,,,,,,,,,,,,,,,,,,,,,,,,,,,,,,,,,,,,,,,,,,,,,,
,,,,,,,610af0eb860dfb6aeb567a49,32,2023-07-20_20h37.54.234,templeton2A_SD_practice,2020.2.10,Win32,60,,,,,,,,,,,,,,,,,,,,,,2.4029,6.527671654,,,,,,,,,,,,,,,,,,,,,,,,,,,,,,,,,,,,,,,,,,,,,,,,,,,,,,,,,,,,,,,,,,,,,,,,,,,,,,,,,,,,,,,,,,,
,,,,,,,610af0eb860dfb6aeb567a49,32,2023-07-20_20h37.54.234,templeton2A_SD_practice,2020.2.10,Win32,60,,,,,,,,,,,,,,,,,,,,,,2.4164,6.527671654,,,,,,,,,,,,,,,,,,,,,,,,,,,,,,,,,,,,,,,,,,,,,,,,,,,,,,,,,,,,,,,,,,,,,,,,,,,,,,,,,,,,,,,,,,,
,,,,,,,610af0eb860dfb6aeb567a49,32,2023-07-20_20h37.54.234,templeton2A_SD_practice,2020.2.10,Win32,60,,,,,,,,,,,,,,,,,,,,,,2.429,6.527671654,,,,,,,,,,,,,,,,,,,,,,,,,,,,,,,,,,,,,,,,,,,,,,,,,,,,,,,,,,,,,,,,,,,,,,,,,,,,,,,,,,,,,,,,,,,
,,,,,,,610af0eb860dfb6aeb567a49,32,2023-07-20_20h37.54.234,templeton2A_SD_practice,2020.2.10,Win32,60,,,,,,,,,,,,,,,,,,,,,,2.442,6.527671654,,,,,,,,,,,,,,,,,,,,,,,,,,,,,,,,,,,,,,,,,,,,,,,,,,,,,,,,,,,,,,,,,,,,,,,,,,,,,,,,,,,,,,,,,,,
,,,,,,,610af0eb860dfb6aeb567a49,32,2023-07-20_20h37.54.234,templeton2A_SD_practice,2020.2.10,Win32,60,,,,,,,,,,,,,,,,,,,,,,2.4549,6.527671654,,,,,,,,,,,,,,,,,,,,,,,,,,,,,,,,,,,,,,,,,,,,,,,,,,,,,,,,,,,,,,,,,,,,,,,,,,,,,,,,,,,,,,,,,,,
,,,,,,,610af0eb860dfb6aeb567a49,32,2023-07-20_20h37.54.234,templeton2A_SD_practice,2020.2.10,Win32,60,,,,,,,,,,,,,,,,,,,,,,2.4677,6.527671654,,,,,,,,,,,,,,,,,,,,,,,,,,,,,,,,,,,,,,,,,,,,,,,,,,,,,,,,,,,,,,,,,,,,,,,,,,,,,,,,,,,,,,,,,,,
,,,,,,,610af0eb860dfb6aeb567a49,32,2023-07-20_20h37.54.234,templeton2A_SD_practice,2020.2.10,Win32,60,,,,,,,,,,,,,,,,,,,,,,2.4813,6.527671654,,,,,,,,,,,,,,,,,,,,,,,,,,,,,,,,,,,,,,,,,,,,,,,,,,,,,,,,,,,,,,,,,,,,,,,,,,,,,,,,,,,,,,,,,,,
,,,,,,,610af0eb860dfb6aeb567a49,32,2023-07-20_20h37.54.234,templeton2A_SD_practice,2020.2.10,Win32,60,,,,,,,,,,,,,,,,,,,,,,2.49,6.527671654,,,,,,,,,,,,,,,,,,,,,,,,,,,,,,,,,,,,,,,,,,,,,,,,,,,,,,,,,,,,,,,,,,,,,,,,,,,,,,,,,,,,,,,,,,,
,,,,,,,610af0eb860dfb6aeb567a49,32,2023-07-20_20h37.54.234,templeton2A_SD_practice,2020.2.10,Win32,60,,,,,,,,,,,,,,,,,,,,,,2.5062,6.527671654,,,,,,,,,,,,,,,,,,,,,,,,,,,,,,,,,,,,,,,,,,,,,,,,,,,,,,,,,,,,,,,,,,,,,,,,,,,,,,,,,,,,,,,,,,,
,,,,,,,610af0eb860dfb6aeb567a49,32,2023-07-20_20h37.54.234,templeton2A_SD_practice,2020.2.10,Win32,60,,,,,,,,,,,,,,,,,,,,,,2.5189,6.527671654,,,,,,,,,,,,,,,,,,,,,,,,,,,,,,,,,,,,,,,,,,,,,,,,,,,,,,,,,,,,,,,,,,,,,,,,,,,,,,,,,,,,,,,,,,,
,,,,,,,610af0eb860dfb6aeb567a49,32,2023-07-20_20h37.54.234,templeton2A_SD_practice,2020.2.10,Win32,60,,,,,,,,,,,,,,,,,,,,,,2.5306,6.527671654,,,,,,,,,,,,,,,,,,,,,,,,,,,,,,,,,,,,,,,,,,,,,,,,,,,,,,,,,,,,,,,,,,,,,,,,,,,,,,,,,,,,,,,,,,,
,,,,,,,610af0eb860dfb6aeb567a49,32,2023-07-20_20h37.54.234,templeton2A_SD_practice,2020.2.10,Win32,60,,,,,,,,,,,,,,,,,,,,,,2.5441,6.527671654,,,,,,,,,,,,,,,,,,,,,,,,,,,,,,,,,,,,,,,,,,,,,,,,,,,,,,,,,,,,,,,,,,,,,,,,,,,,,,,,,,,,,,,,,,,
,,,,,,,610af0eb860dfb6aeb567a49,32,2023-07-20_20h37.54.234,templeton2A_SD_practice,2020.2.10,Win32,60,,,,,,,,,,,,,,,,,,,,,,2.5567,6.527671654,,,,,,,,,,,,,,,,,,,,,,,,,,,,,,,,,,,,,,,,,,,,,,,,,,,,,,,,,,,,,,,,,,,,,,,,,,,,,,,,,,,,,,,,,,,
,,,,,,,610af0eb860dfb6aeb567a49,32,2023-07-20_20h37.54.234,templeton2A_SD_practice,2020.2.10,Win32,60,,,,,,,,,,,,,,,,,,,,,,2.5696,6.527671654,,,,,,,,,,,,,,,,,,,,,,,,,,,,,,,,,,,,,,,,,,,,,,,,,,,,,,,,,,,,,,,,,,,,,,,,,,,,,,,,,,,,,,,,,,,
,,,,,,,610af0eb860dfb6aeb567a49,32,2023-07-20_20h37.54.234,templeton2A_SD_practice,2020.2.10,Win32,60,,,,,,,,,,,,,,,,,,,,,,2.5827,6.527671654,,,,,,,,,,,,,,,,,,,,,,,,,,,,,,,,,,,,,,,,,,,,,,,,,,,,,,,,,,,,,,,,,,,,,,,,,,,,,,,,,,,,,,,,,,,
,,,,,,,610af0eb860dfb6aeb567a49,32,2023-07-20_20h37.54.234,templeton2A_SD_practice,2020.2.10,Win32,60,,,,,,,,,,,,,,,,,,,,,,2.5914,6.527671654,,,,,,,,,,,,,,,,,,,,,,,,,,,,,,,,,,,,,,,,,,,,,,,,,,,,,,,,,,,,,,,,,,,,,,,,,,,,,,,,,,,,,,,,,,,
,,,,,,,610af0eb860dfb6aeb567a49,32,2023-07-20_20h37.54.234,templeton2A_SD_practice,2020.2.10,Win32,60,,,,,,,,,,,,,,,,,,,,,,2.6038,6.527671654,,,,,,,,,,,,,,,,,,,,,,,,,,,,,,,,,,,,,,,,,,,,,,,,,,,,,,,,,,,,,,,,,,,,,,,,,,,,,,,,,,,,,,,,,,,
,,,,,,,610af0eb860dfb6aeb567a49,32,2023-07-20_20h37.54.234,templeton2A_SD_practice,2020.2.10,Win32,60,,,,,,,,,,,,,,,,,,,,,,2.6127,6.527671654,,,,,,,,,,,,,,,,,,,,,,,,,,,,,,,,,,,,,,,,,,,,,,,,,,,,,,,,,,,,,,,,,,,,,,,,,,,,,,,,,,,,,,,,,,,
,,,,,,,610af0eb860dfb6aeb567a49,32,2023-07-20_20h37.54.234,templeton2A_SD_practice,2020.2.10,Win32,60,,,,,,,,,,,,,,,,,,,,,,2.6258,6.527671654,,,,,,,,,,,,,,,,,,,,,,,,,,,,,,,,,,,,,,,,,,,,,,,,,,,,,,,,,,,,,,,,,,,,,,,,,,,,,,,,,,,,,,,,,,,
,,,,,,,610af0eb860dfb6aeb567a49,32,2023-07-20_20h37.54.234,templeton2A_SD_practice,2020.2.10,Win32,60,,,,,,,,,,,,,,,,,,,,,,2.6392,6.527671654,,,,,,,,,,,,,,,,,,,,,,,,,,,,,,,,,,,,,,,,,,,,,,,,,,,,,,,,,,,,,,,,,,,,,,,,,,,,,,,,,,,,,,,,,,,
,,,,,,,610af0eb860dfb6aeb567a49,32,2023-07-20_20h37.54.234,templeton2A_SD_practice,2020.2.10,Win32,60,,,,,,,,,,,,,,,,,,,,,,2.6516,6.527671654,,,,,,,,,,,,,,,,,,,,,,,,,,,,,,,,,,,,,,,,,,,,,,,,,,,,,,,,,,,,,,,,,,,,,,,,,,,,,,,,,,,,,,,,,,,
,,,,,,,610af0eb860dfb6aeb567a49,32,2023-07-20_20h37.54.234,templeton2A_SD_practice,2020.2.10,Win32,60,,,,,,,,,,,,,,,,,,,,,,2.665,6.527671654,,,,,,,,,,,,,,,,,,,,,,,,,,,,,,,,,,,,,,,,,,,,,,,,,,,,,,,,,,,,,,,,,,,,,,,,,,,,,,,,,,,,,,,,,,,
,,,,,,,610af0eb860dfb6aeb567a49,32,2023-07-20_20h37.54.234,templeton2A_SD_practice,2020.2.10,Win32,60,,,,,,,,,,,,,,,,,,,,,,2.6742,6.527671654,,,,,,,,,,,,,,,,,,,,,,,,,,,,,,,,,,,,,,,,,,,,,,,,,,,,,,,,,,,,,,,,,,,,,,,,,,,,,,,,,,,,,,,,,,,
,,,,,,,610af0eb860dfb6aeb567a49,32,2023-07-20_20h37.54.234,templeton2A_SD_practice,2020.2.10,Win32,60,,,,,,,,,,,,,,,,,,,,,,2.6881,6.527671654,,,,,,,,,,,,,,,,,,,,,,,,,,,,,,,,,,,,,,,,,,,,,,,,,,,,,,,,,,,,,,,,,,,,,,,,,,,,,,,,,,,,,,,,,,,
,,,,,,,610af0eb860dfb6aeb567a49,32,2023-07-20_20h37.54.234,templeton2A_SD_practice,2020.2.10,Win32,60,,,,,,,,,,,,,,,,,,,,,,2.6966,6.527671654,,,,,,,,,,,,,,,,,,,,,,,,,,,,,,,,,,,,,,,,,,,,,,,,,,,,,,,,,,,,,,,,,,,,,,,,,,,,,,,,,,,,,,,,,,,
,,,,,,,610af0eb860dfb6aeb567a49,32,2023-07-20_20h37.54.234,templeton2A_SD_practice,2020.2.10,Win32,60,,,,,,,,,,,,,,,,,,,,,,2.7111,6.527671654,,,,,,,,,,,,,,,,,,,,,,,,,,,,,,,,,,,,,,,,,,,,,,,,,,,,,,,,,,,,,,,,,,,,,,,,,,,,,,,,,,,,,,,,,,,
,,,,,,,610af0eb860dfb6aeb567a49,32,2023-07-20_20h37.54.234,templeton2A_SD_practice,2020.2.10,Win32,60,,,,,,,,,,,,,,,,,,,,,,2.7235,6.527671654,,,,,,,,,,,,,,,,,,,,,,,,,,,,,,,,,,,,,,,,,,,,,,,,,,,,,,,,,,,,,,,,,,,,,,,,,,,,,,,,,,,,,,,,,,,
,,,,,,,610af0eb860dfb6aeb567a49,32,2023-07-20_20h37.54.234,templeton2A_SD_practice,2020.2.10,Win32,60,,,,,,,,,,,,,,,,,,,,,,2.7365,6.527671654,,,,,,,,,,,,,,,,,,,,,,,,,,,,,,,,,,,,,,,,,,,,,,,,,,,,,,,,,,,,,,,,,,,,,,,,,,,,,,,,,,,,,,,,,,,
,,,,,,,610af0eb860dfb6aeb567a49,32,2023-07-20_20h37.54.234,templeton2A_SD_practice,2020.2.10,Win32,60,,,,,,,,,,,,,,,,,,,,,,2.7495,6.527671654,,,,,,,,,,,,,,,,,,,,,,,,,,,,,,,,,,,,,,,,,,,,,,,,,,,,,,,,,,,,,,,,,,,,,,,,,,,,,,,,,,,,,,,,,,,
,,,,,,,610af0eb860dfb6aeb567a49,32,2023-07-20_20h37.54.234,templeton2A_SD_practice,2020.2.10,Win32,60,,,,,,,,,,,,,,,,,,,,,,2.7627,6.527671654,,,,,,,,,,,,,,,,,,,,,,,,,,,,,,,,,,,,,,,,,,,,,,,,,,,,,,,,,,,,,,,,,,,,,,,,,,,,,,,,,,,,,,,,,,,
,,,,,,,610af0eb860dfb6aeb567a49,32,2023-07-20_20h37.54.234,templeton2A_SD_practice,2020.2.10,Win32,60,,,,,,,,,,,,,,,,,,,,,,2.7752,6.527671654,,,,,,,,,,,,,,,,,,,,,,,,,,,,,,,,,,,,,,,,,,,,,,,,,,,,,,,,,,,,,,,,,,,,,,,,,,,,,,,,,,,,,,,,,,,
,,,,,,,610af0eb860dfb6aeb567a49,32,2023-07-20_20h37.54.234,templeton2A_SD_practice,2020.2.10,Win32,60,,,,,,,,,,,,,,,,,,,,,,2.7882,6.527671654,,,,,,,,,,,,,,,,,,,,,,,,,,,,,,,,,,,,,,,,,,,,,,,,,,,,,,,,,,,,,,,,,,,,,,,,,,,,,,,,,,,,,,,,,,,
,,,,,,,610af0eb860dfb6aeb567a49,32,2023-07-20_20h37.54.234,templeton2A_SD_practice,2020.2.10,Win32,60,,,,,,,,,,,,,,,,,,,,,,2.8011,6.527671654,,,,,,,,,,,,,,,,,,,,,,,,,,,,,,,,,,,,,,,,,,,,,,,,,,,,,,,,,,,,,,,,,,,,,,,,,,,,,,,,,,,,,,,,,,,
,,,,,,,610af0eb860dfb6aeb567a49,32,2023-07-20_20h37.54.234,templeton2A_SD_practice,2020.2.10,Win32,60,,,,,,,,,,,,,,,,,,,,,,2.813,6.527671654,,,,,,,,,,,,,,,,,,,,,,,,,,,,,,,,,,,,,,,,,,,,,,,,,,,,,,,,,,,,,,,,,,,,,,,,,,,,,,,,,,,,,,,,,,,
,,,,,,,610af0eb860dfb6aeb567a49,32,2023-07-20_20h37.54.234,templeton2A_SD_practice,2020.2.10,Win32,60,,,,,,,,,,,,,,,,,,,,,,2.8253,6.527671654,,,,,,,,,,,,,,,,,,,,,,,,,,,,,,,,,,,,,,,,,,,,,,,,,,,,,,,,,,,,,,,,,,,,,,,,,,,,,,,,,,,,,,,,,,,
,,,,,,,610af0eb860dfb6aeb567a49,32,2023-07-20_20h37.54.234,templeton2A_SD_practice,2020.2.10,Win32,60,,,,,,,,,,,,,,,,,,,,,,2.8365,6.527671654,,,,,,,,,,,,,,,,,,,,,,,,,,,,,,,,,,,,,,,,,,,,,,,,,,,,,,,,,,,,,,,,,,,,,,,,,,,,,,,,,,,,,,,,,,,
,,,,,,,610af0eb860dfb6aeb567a49,32,2023-07-20_20h37.54.234,templeton2A_SD_practice,2020.2.10,Win32,60,,,,,,,,,,,,,,,,,,,,,,2.8497,6.527671654,,,,,,,,,,,,,,,,,,,,,,,,,,,,,,,,,,,,,,,,,,,,,,,,,,,,,,,,,,,,,,,,,,,,,,,,,,,,,,,,,,,,,,,,,,,
,,,,,,,610af0eb860dfb6aeb567a49,32,2023-07-20_20h37.54.234,templeton2A_SD_practice,2020.2.10,Win32,60,,,,,,,,,,,,,,,,,,,,,,2.8604,6.527671654,,,,,,,,,,,,,,,,,,,,,,,,,,,,,,,,,,,,,,,,,,,,,,,,,,,,,,,,,,,,,,,,,,,,,,,,,,,,,,,,,,,,,,,,,,,
,,,,,,,610af0eb860dfb6aeb567a49,32,2023-07-20_20h37.54.234,templeton2A_SD_practice,2020.2.10,Win32,60,,,,,,,,,,,,,,,,,,,,,,2.8733,6.527671654,,,,,,,,,,,,,,,,,,,,,,,,,,,,,,,,,,,,,,,,,,,,,,,,,,,,,,,,,,,,,,,,,,,,,,,,,,,,,,,,,,,,,,,,,,,
,,,,,,,610af0eb860dfb6aeb567a49,32,2023-07-20_20h37.54.234,templeton2A_SD_practice,2020.2.10,Win32,60,,,,,,,,,,,,,,,,,,,,,,2.8857,6.527671654,,,,,,,,,,,,,,,,,,,,,,,,,,,,,,,,,,,,,,,,,,,,,,,,,,,,,,,,,,,,,,,,,,,,,,,,,,,,,,,,,,,,,,,,,,,
,,,,,,,610af0eb860dfb6aeb567a49,32,2023-07-20_20h37.54.234,templeton2A_SD_practice,2020.2.10,Win32,60,,,,,,,,,,,,,,,,,,,,,,2.898,6.527671654,,,,,,,,,,,,,,,,,,,,,,,,,,,,,,,,,,,,,,,,,,,,,,,,,,,,,,,,,,,,,,,,,,,,,,,,,,,,,,,,,,,,,,,,,,,
,,,,,,,610af0eb860dfb6aeb567a49,32,2023-07-20_20h37.54.234,templeton2A_SD_practice,2020.2.10,Win32,60,,,,,,,,,,,,,,,,,,,,,,2.9074,6.527671654,,,,,,,,,,,,,,,,,,,,,,,,,,,,,,,,,,,,,,,,,,,,,,,,,,,,,,,,,,,,,,,,,,,,,,,,,,,,,,,,,,,,,,,,,,,
,,,,,,,610af0eb860dfb6aeb567a49,32,2023-07-20_20h37.54.234,templeton2A_SD_practice,2020.2.10,Win32,60,,,,,,,,,,,,,,,,,,,,,,2.9183,6.527671654,,,,,,,,,,,,,,,,,,,,,,,,,,,,,,,,,,,,,,,,,,,,,,,,,,,,,,,,,,,,,,,,,,,,,,,,,,,,,,,,,,,,,,,,,,,
,,,,,,,610af0eb860dfb6aeb567a49,32,2023-07-20_20h37.54.234,templeton2A_SD_practice,2020.2.10,Win32,60,,,,,,,,,,,,,,,,,,,,,,2.9272,6.527671654,,,,,,,,,,,,,,,,,,,,,,,,,,,,,,,,,,,,,,,,,,,,,,,,,,,,,,,,,,,,,,,,,,,,,,,,,,,,,,,,,,,,,,,,,,,
,,,,,,,610af0eb860dfb6aeb567a49,32,2023-07-20_20h37.54.234,templeton2A_SD_practice,2020.2.10,Win32,60,,,,,,,,,,,,,,,,,,,,,,2.9388,6.527671654,,,,,,,,,,,,,,,,,,,,,,,,,,,,,,,,,,,,,,,,,,,,,,,,,,,,,,,,,,,,,,,,,,,,,,,,,,,,,,,,,,,,,,,,,,,
,,,,,,,610af0eb860dfb6aeb567a49,32,2023-07-20_20h37.54.234,templeton2A_SD_practice,2020.2.10,Win32,60,,,,,,,,,,,,,,,,,,,,,,2.9471,6.527671654,,,,,,,,,,,,,,,,,,,,,,,,,,,,,,,,,,,,,,,,,,,,,,,,,,,,,,,,,,,,,,,,,,,,,,,,,,,,,,,,,,,,,,,,,,,
,,,,,,,610af0eb860dfb6aeb567a49,32,2023-07-20_20h37.54.234,templeton2A_SD_practice,2020.2.10,Win32,60,,,,,,,,,,,,,,,,,,,,,,2.9587,6.527671654,,,,,,,,,,,,,,,,,,,,,,,,,,,,,,,,,,,,,,,,,,,,,,,,,,,,,,,,,,,,,,,,,,,,,,,,,,,,,,,,,,,,,,,,,,,
,,,,,,,610af0eb860dfb6aeb567a49,32,2023-07-20_20h37.54.234,templeton2A_SD_practice,2020.2.10,Win32,60,,,,,,,,,,,,,,,,,,,,,,2.972,6.527671654,,,,,,,,,,,,,,,,,,,,,,,,,,,,,,,,,,,,,,,,,,,,,,,,,,,,,,,,,,,,,,,,,,,,,,,,,,,,,,,,,,,,,,,,,,,
,,,,,,,610af0eb860dfb6aeb567a49,32,2023-07-20_20h37.54.234,templeton2A_SD_practice,2020.2.10,Win32,60,,,,,,,,,,,,,,,,,,,,,,2.9791,6.527671654,,,,,,,,,,,,,,,,,,,,,,,,,,,,,,,,,,,,,,,,,,,,,,,,,,,,,,,,,,,,,,,,,,,,,,,,,,,,,,,,,,,,,,,,,,,
,,,,,,,610af0eb860dfb6aeb567a49,32,2023-07-20_20h37.54.234,templeton2A_SD_practice,2020.2.10,Win32,60,,,,,,,,,,,,,,,,,,,,,,2.9945,6.527671654,,,,,,,,,,,,,,,,,,,,,,,,,,,,,,,,,,,,,,,,,,,,,,,,,,,,,,,,,,,,,,,,,,,,,,,,,,,,,,,,,,,,,,,,,,,
,,,,,,,610af0eb860dfb6aeb567a49,32,2023-07-20_20h37.54.234,templeton2A_SD_practice,2020.2.10,Win32,60,,,,,,,,,,,,,,,,,,,,,,3.0034,6.527671654,,,,,,,,,,,,,,,,,,,,,,,,,,,,,,,,,,,,,,,,,,,,,,,,,,,,,,,,,,,,,,,,,,,,,,,,,,,,,,,,,,,,,,,,,,,
,,,,,,,610af0eb860dfb6aeb567a49,32,2023-07-20_20h37.54.234,templeton2A_SD_practice,2020.2.10,Win32,60,,,,,,,,,,,,,,,,,,,,,,3.0146,6.527671654,,,,,,,,,,,,,,,,,,,,,,,,,,,,,,,,,,,,,,,,,,,,,,,,,,,,,,,,,,,,,,,,,,,,,,,,,,,,,,,,,,,,,,,,,,,
,,,,,,,610af0eb860dfb6aeb567a49,32,2023-07-20_20h37.54.234,templeton2A_SD_practice,2020.2.10,Win32,60,,,,,,,,,,,,,,,,,,,,,,3.0223,6.527671654,,,,,,,,,,,,,,,,,,,,,,,,,,,,,,,,,,,,,,,,,,,,,,,,,,,,,,,,,,,,,,,,,,,,,,,,,,,,,,,,,,,,,,,,,,,
,,,,,,,610af0eb860dfb6aeb567a49,32,2023-07-20_20h37.54.234,templeton2A_SD_practice,2020.2.10,Win32,60,,,,,,,,,,,,,,,,,,,,,,3.0375,6.527671654,,,,,,,,,,,,,,,,,,,,,,,,,,,,,,,,,,,,,,,,,,,,,,,,,,,,,,,,,,,,,,,,,,,,,,,,,,,,,,,,,,,,,,,,,,,
,,,,,,,610af0eb860dfb6aeb567a49,32,2023-07-20_20h37.54.234,templeton2A_SD_practice,2020.2.10,Win32,60,,,,,,,,,,,,,,,,,,,,,,3.0491,6.527671654,,,,,,,,,,,,,,,,,,,,,,,,,,,,,,,,,,,,,,,,,,,,,,,,,,,,,,,,,,,,,,,,,,,,,,,,,,,,,,,,,,,,,,,,,,,
,,,,,,,610af0eb860dfb6aeb567a49,32,2023-07-20_20h37.54.234,templeton2A_SD_practice,2020.2.10,Win32,60,,,,,,,,,,,,,,,,,,,,,,3.06,6.527671654,,,,,,,,,,,,,,,,,,,,,,,,,,,,,,,,,,,,,,,,,,,,,,,,,,,,,,,,,,,,,,,,,,,,,,,,,,,,,,,,,,,,,,,,,,,
,,,,,,,610af0eb860dfb6aeb567a49,32,2023-07-20_20h37.54.234,templeton2A_SD_practice,2020.2.10,Win32,60,,,,,,,,,,,,,,,,,,,,,,3.073,6.527671654,,,,,,,,,,,,,,,,,,,,,,,,,,,,,,,,,,,,,,,,,,,,,,,,,,,,,,,,,,,,,,,,,,,,,,,,,,,,,,,,,,,,,,,,,,,
,,,,,,,610af0eb860dfb6aeb567a49,32,2023-07-20_20h37.54.234,templeton2A_SD_practice,2020.2.10,Win32,60,,,,,,,,,,,,,,,,,,,,,,3.0855,6.527671654,,,,,,,,,,,,,,,,,,,,,,,,,,,,,,,,,,,,,,,,,,,,,,,,,,,,,,,,,,,,,,,,,,,,,,,,,,,,,,,,,,,,,,,,,,,
,,,,,,,610af0eb860dfb6aeb567a49,32,2023-07-20_20h37.54.234,templeton2A_SD_practice,2020.2.10,Win32,60,,,,,,,,,,,,,,,,,,,,,,3.0962,6.527671654,,,,,,,,,,,,,,,,,,,,,,,,,,,,,,,,,,,,,,,,,,,,,,,,,,,,,,,,,,,,,,,,,,,,,,,,,,,,,,,,,,,,,,,,,,,
,,,,,,,610af0eb860dfb6aeb567a49,32,2023-07-20_20h37.54.234,templeton2A_SD_practice,2020.2.10,Win32,60,,,,,,,,,,,,,,,,,,,,,,3.105,6.527671654,,,,,,,,,,,,,,,,,,,,,,,,,,,,,,,,,,,,,,,,,,,,,,,,,,,,,,,,,,,,,,,,,,,,,,,,,,,,,,,,,,,,,,,,,,,
,,,,,,,610af0eb860dfb6aeb567a49,32,2023-07-20_20h37.54.234,templeton2A_SD_practice,2020.2.10,Win32,60,,,,,,,,,,,,,,,,,,,,,,3.1162,6.527671654,,,,,,,,,,,,,,,,,,,,,,,,,,,,,,,,,,,,,,,,,,,,,,,,,,,,,,,,,,,,,,,,,,,,,,,,,,,,,,,,,,,,,,,,,,,
,,,,,,,610af0eb860dfb6aeb567a49,32,2023-07-20_20h37.54.234,templeton2A_SD_practice,2020.2.10,Win32,60,,,,,,,,,,,,,,,,,,,,,,3.1245,6.527671654,,,,,,,,,,,,,,,,,,,,,,,,,,,,,,,,,,,,,,,,,,,,,,,,,,,,,,,,,,,,,,,,,,,,,,,,,,,,,,,,,,,,,,,,,,,
,,,,,,,610af0eb860dfb6aeb567a49,32,2023-07-20_20h37.54.234,templeton2A_SD_practice,2020.2.10,Win32,60,,,,,,,,,,,,,,,,,,,,,,3.1385,6.527671654,,,,,,,,,,,,,,,,,,,,,,,,,,,,,,,,,,,,,,,,,,,,,,,,,,,,,,,,,,,,,,,,,,,,,,,,,,,,,,,,,,,,,,,,,,,
,,,,,,,610af0eb860dfb6aeb567a49,32,2023-07-20_20h37.54.234,templeton2A_SD_practice,2020.2.10,Win32,60,,,,,,,,,,,,,,,,,,,,,,3.1503,6.527671654,,,,,,,,,,,,,,,,,,,,,,,,,,,,,,,,,,,,,,,,,,,,,,,,,,,,,,,,,,,,,,,,,,,,,,,,,,,,,,,,,,,,,,,,,,,
,,,,,,,610af0eb860dfb6aeb567a49,32,2023-07-20_20h37.54.234,templeton2A_SD_practice,2020.2.10,Win32,60,,,,,,,,,,,,,,,,,,,,,,3.1621,6.527671654,,,,,,,,,,,,,,,,,,,,,,,,,,,,,,,,,,,,,,,,,,,,,,,,,,,,,,,,,,,,,,,,,,,,,,,,,,,,,,,,,,,,,,,,,,,
,,,,,,,610af0eb860dfb6aeb567a49,32,2023-07-20_20h37.54.234,templeton2A_SD_practice,2020.2.10,Win32,60,,,,,,,,,,,,,,,,,,,,,,3.1755,6.527671654,,,,,,,,,,,,,,,,,,,,,,,,,,,,,,,,,,,,,,,,,,,,,,,,,,,,,,,,,,,,,,,,,,,,,,,,,,,,,,,,,,,,,,,,,,,
,,,,,,,610af0eb860dfb6aeb567a49,32,2023-07-20_20h37.54.234,templeton2A_SD_practice,2020.2.10,Win32,60,,,,,,,,,,,,,,,,,,,,,,3.1886,6.527671654,,,,,,,,,,,,,,,,,,,,,,,,,,,,,,,,,,,,,,,,,,,,,,,,,,,,,,,,,,,,,,,,,,,,,,,,,,,,,,,,,,,,,,,,,,,
,,,,,,,610af0eb860dfb6aeb567a49,32,2023-07-20_20h37.54.234,templeton2A_SD_practice,2020.2.10,Win32,60,,,,,,,,,,,,,,,,,,,,,,3.2011,6.527671654,,,,,,,,,,,,,,,,,,,,,,,,,,,,,,,,,,,,,,,,,,,,,,,,,,,,,,,,,,,,,,,,,,,,,,,,,,,,,,,,,,,,,,,,,,,
,,,,,,,610af0eb860dfb6aeb567a49,32,2023-07-20_20h37.54.234,templeton2A_SD_practice,2020.2.10,Win32,60,,,,,,,,,,,,,,,,,,,,,,3.2104,6.527671654,,,,,,,,,,,,,,,,,,,,,,,,,,,,,,,,,,,,,,,,,,,,,,,,,,,,,,,,,,,,,,,,,,,,,,,,,,,,,,,,,,,,,,,,,,,
,,,,,,,610af0eb860dfb6aeb567a49,32,2023-07-20_20h37.54.234,templeton2A_SD_practice,2020.2.10,Win32,60,,,,,,,,,,,,,,,,,,,,,,3.22,6.527671654,,,,,,,,,,,,,,,,,,,,,,,,,,,,,,,,,,,,,,,,,,,,,,,,,,,,,,,,,,,,,,,,,,,,,,,,,,,,,,,,,,,,,,,,,,,
,,,,,,,610af0eb860dfb6aeb567a49,32,2023-07-20_20h37.54.234,templeton2A_SD_practice,2020.2.10,Win32,60,,,,,,,,,,,,,,,,,,,,,,3.2331,6.527671654,,,,,,,,,,,,,,,,,,,,,,,,,,,,,,,,,,,,,,,,,,,,,,,,,,,,,,,,,,,,,,,,,,,,,,,,,,,,,,,,,,,,,,,,,,,
,,,,,,,610af0eb860dfb6aeb567a49,32,2023-07-20_20h37.54.234,templeton2A_SD_practice,2020.2.10,Win32,60,,,,,,,,,,,,,,,,,,,,,,3.241,6.527671654,,,,,,,,,,,,,,,,,,,,,,,,,,,,,,,,,,,,,,,,,,,,,,,,,,,,,,,,,,,,,,,,,,,,,,,,,,,,,,,,,,,,,,,,,,,
,,,,,,,610af0eb860dfb6aeb567a49,32,2023-07-20_20h37.54.234,templeton2A_SD_practice,2020.2.10,Win32,60,,,,,,,,,,,,,,,,,,,,,,3.2565,6.527671654,,,,,,,,,,,,,,,,,,,,,,,,,,,,,,,,,,,,,,,,,,,,,,,,,,,,,,,,,,,,,,,,,,,,,,,,,,,,,,,,,,,,,,,,,,,
,,,,,,,610af0eb860dfb6aeb567a49,32,2023-07-20_20h37.54.234,templeton2A_SD_practice,2020.2.10,Win32,60,,,,,,,,,,,,,,,,,,,,,,3.2692,6.527671654,,,,,,,,,,,,,,,,,,,,,,,,,,,,,,,,,,,,,,,,,,,,,,,,,,,,,,,,,,,,,,,,,,,,,,,,,,,,,,,,,,,,,,,,,,,
