Laptop,trials_7.thisRepN,trials_7.thisTrialN,trials_7.thisN,trials_7.thisIndex,trials_7.ran,trials_7.order,participant,mapping,date,expName,psychopyVersion,OS,frameRate,FtInUnit,trials_8.thisRepN,trials_8.thisTrialN,trials_8.thisN,trials_8.thisIndex,trials_8.ran,Feet,trials_9.thisRepN,trials_9.thisTrialN,trials_9.thisN,trials_9.thisIndex,trials_9.ran,Inches,HeightCmAsEntered,HeightCmUsed,DistCmBasedOnHeight,trials_9.order,screen_scale_start_time,scale_key_pressed,X Scale,Y Scale,screen_scale_end_time,timeInTrial,eccentricity,spacePressed,BlindSpotCm,BlindSpotBasedDistCm,DistUsedCm,begin_expt_instr_resp.keys,begin_expt_instr_resp.rt,trials_2.thisRepN,trials_2.thisTrialN,trials_2.thisN,trials_2.thisIndex,trials_2.ran,Used_image_1,Used_image_2,Used_image_3,Used_image_4,Used_image_5,Used_image_6,Used_image_7,Used_image_8,Unused_image_1,Unused_image_2,memDisplayOnTimePractice,mem_image_0_practice,mem_image_1_practice,mem_image_2_practice,mem_image_3_practice,mem_image_4_practice,mem_image_5_practice,mem_image_6_practice,mem_image_7_practice,retention_interval_practice,retro_0_post_1_practice,change_or_no_practice,cue_location_practice,mem_display_to_test_array_duration_s,mem_display_to_cue_duration_s,routine_duration_s,sd_practice_resp.keys,sd_practice_resp.rt,conf_practice_resp.keys,conf_practice_resp.rt,trials.thisRepN,trials.thisTrialN,trials.thisN,trials.thisIndex,trials.ran,trials_4.thisRepN,trials_4.thisTrialN,trials_4.thisN,trials_4.thisIndex,trials_4.ran,training_trial_index,memDisplayOnTimeTraining,mem_image_0_training,mem_image_1_training,mem_image_2_training,mem_image_3_training,mem_image_4_training,mem_image_5_training,mem_image_6_training,mem_image_7_training,retro_0_post_1_training,change_or_no_training,cue_location_training,test_image_0_training,test_image_1_training,test_image_2_training,test_image_3_training,test_image_4_training,test_image_5_training,test_image_6_training,test_image_7_training,consecutive_correct_retro_short,sd_training_resp.keys,sd_training_resp.rt,conf_training_resp.keys,conf_training_resp.rt,trials_10.thisRepN,trials_10.thisTrialN,trials_10.thisN,trials_10.thisIndex,trials_10.ran,short_interval_training_finished,training_trial_index_long_this_block,correct_retro_long_this_block,retro_trials_long_this_block,long_interval_block_finished,long_block_retro_acc,reached_criterion,run_out_of_trials,reachedFinish
1,99,0,99,0,1,98,61744ea309ea03a24ac76ed1@email.prolific.co,32,2023-07-20_21h15.18.900,templeton2A_SD_practice,2020.2.10,Win32,60,,,,,,,,,,,,,,,,,,,,,,,,,,,,,,,,,,,,,,,,,,,,,,,,,,,,,,,,,,,,,,,,,,,,,,,,,,,,,,,,,,,,,,,,,,,,,,,,,,,,,,,,,,,,,,,,,,,
,,,,,,,61744ea309ea03a24ac76ed1@email.prolific.co,32,2023-07-20_21h15.18.900,templeton2A_SD_practice,2020.2.10,Win32,60,1,0,0,0,0,1,,,,,,,,,,,,,,,,,,,,,,,,,,,,,,,,,,,,,,,,,,,,,,,,,,,,,,,,,,,,,,,,,,,,,,,,,,,,,,,,,,,,,,,,,,,,,,,,,,,,,,,,,,,,,
,,,,,,,61744ea309ea03a24ac76ed1@email.prolific.co,32,2023-07-20_21h15.18.900,templeton2A_SD_practice,2020.2.10,Win32,60,,,,,,,5,0,0,0,0,1,,,,,,,,,,,,,,,,,,,,,,,,,,,,,,,,,,,,,,,,,,,,,,,,,,,,,,,,,,,,,,,,,,,,,,,,,,,,,,,,,,,,,,,,,,,,,,,,,,,,,,,
,,,,,,,61744ea309ea03a24ac76ed1@email.prolific.co,32,2023-07-20_21h15.18.900,templeton2A_SD_practice,2020.2.10,Win32,60,,,,,,,,99,0,99,0,1,6,167.64,167.64,50.570916,98,,,,,,,,,,,,,,,,,,,,,,,,,,,,,,,,,,,,,,,,,,,,,,,,,,,,,,,,,,,,,,,,,,,,,,,,,,,,,,,,,,,,,,,,,,,,,,,,,,
,,,,,,,61744ea309ea03a24ac76ed1@email.prolific.co,32,2023-07-20_21h15.18.900,templeton2A_SD_practice,2020.2.10,Win32,60,,,,,,,,,,,,,,,,,,186.9395,,,,,,,,,,,,,,,,,,,,,,,,,,,,,,,,,,,,,,,,,,,,,,,,,,,,,,,,,,,,,,,,,,,,,,,,,,,,,,,,,,,,,,,,,,,,,,,,,
,,,,,,,61744ea309ea03a24ac76ed1@email.prolific.co,32,2023-07-20_21h15.18.900,templeton2A_SD_practice,2020.2.10,Win32,60,,,,,,,,,,,,,,,,,,,1,,,,,,,,,,,,,,,,,,,,,,,,,,,,,,,,,,,,,,,,,,,,,,,,,,,,,,,,,,,,,,,,,,,,,,,,,,,,,,,,,,,,,,,,,,,,,,,,
,,,,,,,61744ea309ea03a24ac76ed1@email.prolific.co,32,2023-07-20_21h15.18.900,templeton2A_SD_practice,2020.2.10,Win32,60,,,,,,,,,,,,,,,,,,,1,,,,,,,,,,,,,,,,,,,,,,,,,,,,,,,,,,,,,,,,,,,,,,,,,,,,,,,,,,,,,,,,,,,,,,,,,,,,,,,,,,,,,,,,,,,,,,,,
,,,,,,,61744ea309ea03a24ac76ed1@email.prolific.co,32,2023-07-20_21h15.18.900,templeton2A_SD_practice,2020.2.10,Win32,60,,,,,,,,,,,,,,,,,,,1,,,,,,,,,,,,,,,,,,,,,,,,,,,,,,,,,,,,,,,,,,,,,,,,,,,,,,,,,,,,,,,,,,,,,,,,,,,,,,,,,,,,,,,,,,,,,,,,
,,,,,,,61744ea309ea03a24ac76ed1@email.prolific.co,32,2023-07-20_21h15.18.900,templeton2A_SD_practice,2020.2.10,Win32,60,,,,,,,,,,,,,,,,,,,2,,,,,,,,,,,,,,,,,,,,,,,,,,,,,,,,,,,,,,,,,,,,,,,,,,,,,,,,,,,,,,,,,,,,,,,,,,,,,,,,,,,,,,,,,,,,,,,,
,,,,,,,61744ea309ea03a24ac76ed1@email.prolific.co,32,2023-07-20_21h15.18.900,templeton2A_SD_practice,2020.2.10,Win32,60,,,,,,,,,,,,,,,,,,,2,,,,,,,,,,,,,,,,,,,,,,,,,,,,,,,,,,,,,,,,,,,,,,,,,,,,,,,,,,,,,,,,,,,,,,,,,,,,,,,,,,,,,,,,,,,,,,,,
,,,,,,,61744ea309ea03a24ac76ed1@email.prolific.co,32,2023-07-20_21h15.18.900,templeton2A_SD_practice,2020.2.10,Win32,60,,,,,,,,,,,,,,,,,,,2,,,,,,,,,,,,,,,,,,,,,,,,,,,,,,,,,,,,,,,,,,,,,,,,,,,,,,,,,,,,,,,,,,,,,,,,,,,,,,,,,,,,,,,,,,,,,,,,
,,,,,,,61744ea309ea03a24ac76ed1@email.prolific.co,32,2023-07-20_21h15.18.900,templeton2A_SD_practice,2020.2.10,Win32,60,,,,,,,,,,,,,,,,,,,2,,,,,,,,,,,,,,,,,,,,,,,,,,,,,,,,,,,,,,,,,,,,,,,,,,,,,,,,,,,,,,,,,,,,,,,,,,,,,,,,,,,,,,,,,,,,,,,,
,,,,,,,61744ea309ea03a24ac76ed1@email.prolific.co,32,2023-07-20_21h15.18.900,templeton2A_SD_practice,2020.2.10,Win32,60,,,,,,,,,,,,,,,,,,,2,,,,,,,,,,,,,,,,,,,,,,,,,,,,,,,,,,,,,,,,,,,,,,,,,,,,,,,,,,,,,,,,,,,,,,,,,,,,,,,,,,,,,,,,,,,,,,,,
,,,,,,,61744ea309ea03a24ac76ed1@email.prolific.co,32,2023-07-20_21h15.18.900,templeton2A_SD_practice,2020.2.10,Win32,60,,,,,,,,,,,,,,,,,,,2,,,,,,,,,,,,,,,,,,,,,,,,,,,,,,,,,,,,,,,,,,,,,,,,,,,,,,,,,,,,,,,,,,,,,,,,,,,,,,,,,,,,,,,,,,,,,,,,
,,,,,,,61744ea309ea03a24ac76ed1@email.prolific.co,32,2023-07-20_21h15.18.900,templeton2A_SD_practice,2020.2.10,Win32,60,,,,,,,,,,,,,,,,,,,2,,,,,,,,,,,,,,,,,,,,,,,,,,,,,,,,,,,,,,,,,,,,,,,,,,,,,,,,,,,,,,,,,,,,,,,,,,,,,,,,,,,,,,,,,,,,,,,,
,,,,,,,61744ea309ea03a24ac76ed1@email.prolific.co,32,2023-07-20_21h15.18.900,templeton2A_SD_practice,2020.2.10,Win32,60,,,,,,,,,,,,,,,,,,,2,,,,,,,,,,,,,,,,,,,,,,,,,,,,,,,,,,,,,,,,,,,,,,,,,,,,,,,,,,,,,,,,,,,,,,,,,,,,,,,,,,,,,,,,,,,,,,,,
,,,,,,,61744ea309ea03a24ac76ed1@email.prolific.co,32,2023-07-20_21h15.18.900,templeton2A_SD_practice,2020.2.10,Win32,60,,,,,,,,,,,,,,,,,,,2,,,,,,,,,,,,,,,,,,,,,,,,,,,,,,,,,,,,,,,,,,,,,,,,,,,,,,,,,,,,,,,,,,,,,,,,,,,,,,,,,,,,,,,,,,,,,,,,
,,,,,,,61744ea309ea03a24ac76ed1@email.prolific.co,32,2023-07-20_21h15.18.900,templeton2A_SD_practice,2020.2.10,Win32,60,,,,,,,,,,,,,,,,,,,2,,,,,,,,,,,,,,,,,,,,,,,,,,,,,,,,,,,,,,,,,,,,,,,,,,,,,,,,,,,,,,,,,,,,,,,,,,,,,,,,,,,,,,,,,,,,,,,,
,,,,,,,61744ea309ea03a24ac76ed1@email.prolific.co,32,2023-07-20_21h15.18.900,templeton2A_SD_practice,2020.2.10,Win32,60,,,,,,,,,,,,,,,,,,,2,,,,,,,,,,,,,,,,,,,,,,,,,,,,,,,,,,,,,,,,,,,,,,,,,,,,,,,,,,,,,,,,,,,,,,,,,,,,,,,,,,,,,,,,,,,,,,,,
,,,,,,,61744ea309ea03a24ac76ed1@email.prolific.co,32,2023-07-20_21h15.18.900,templeton2A_SD_practice,2020.2.10,Win32,60,,,,,,,,,,,,,,,,,,,2,,,,,,,,,,,,,,,,,,,,,,,,,,,,,,,,,,,,,,,,,,,,,,,,,,,,,,,,,,,,,,,,,,,,,,,,,,,,,,,,,,,,,,,,,,,,,,,,
,,,,,,,61744ea309ea03a24ac76ed1@email.prolific.co,32,2023-07-20_21h15.18.900,templeton2A_SD_practice,2020.2.10,Win32,60,,,,,,,,,,,,,,,,,,,2,,,,,,,,,,,,,,,,,,,,,,,,,,,,,,,,,,,,,,,,,,,,,,,,,,,,,,,,,,,,,,,,,,,,,,,,,,,,,,,,,,,,,,,,,,,,,,,,
,,,,,,,61744ea309ea03a24ac76ed1@email.prolific.co,32,2023-07-20_21h15.18.900,templeton2A_SD_practice,2020.2.10,Win32,60,,,,,,,,,,,,,,,,,,,2,,,,,,,,,,,,,,,,,,,,,,,,,,,,,,,,,,,,,,,,,,,,,,,,,,,,,,,,,,,,,,,,,,,,,,,,,,,,,,,,,,,,,,,,,,,,,,,,
,,,,,,,61744ea309ea03a24ac76ed1@email.prolific.co,32,2023-07-20_21h15.18.900,templeton2A_SD_practice,2020.2.10,Win32,60,,,,,,,,,,,,,,,,,,,2,,,,,,,,,,,,,,,,,,,,,,,,,,,,,,,,,,,,,,,,,,,,,,,,,,,,,,,,,,,,,,,,,,,,,,,,,,,,,,,,,,,,,,,,,,,,,,,,
,,,,,,,61744ea309ea03a24ac76ed1@email.prolific.co,32,2023-07-20_21h15.18.900,templeton2A_SD_practice,2020.2.10,Win32,60,,,,,,,,,,,,,,,,,,,2,,,,,,,,,,,,,,,,,,,,,,,,,,,,,,,,,,,,,,,,,,,,,,,,,,,,,,,,,,,,,,,,,,,,,,,,,,,,,,,,,,,,,,,,,,,,,,,,
,,,,,,,61744ea309ea03a24ac76ed1@email.prolific.co,32,2023-07-20_21h15.18.900,templeton2A_SD_practice,2020.2.10,Win32,60,,,,,,,,,,,,,,,,,,,2,,,,,,,,,,,,,,,,,,,,,,,,,,,,,,,,,,,,,,,,,,,,,,,,,,,,,,,,,,,,,,,,,,,,,,,,,,,,,,,,,,,,,,,,,,,,,,,,
,,,,,,,61744ea309ea03a24ac76ed1@email.prolific.co,32,2023-07-20_21h15.18.900,templeton2A_SD_practice,2020.2.10,Win32,60,,,,,,,,,,,,,,,,,,,2,,,,,,,,,,,,,,,,,,,,,,,,,,,,,,,,,,,,,,,,,,,,,,,,,,,,,,,,,,,,,,,,,,,,,,,,,,,,,,,,,,,,,,,,,,,,,,,,
,,,,,,,61744ea309ea03a24ac76ed1@email.prolific.co,32,2023-07-20_21h15.18.900,templeton2A_SD_practice,2020.2.10,Win32,60,,,,,,,,,,,,,,,,,,,2,,,,,,,,,,,,,,,,,,,,,,,,,,,,,,,,,,,,,,,,,,,,,,,,,,,,,,,,,,,,,,,,,,,,,,,,,,,,,,,,,,,,,,,,,,,,,,,,
,,,,,,,61744ea309ea03a24ac76ed1@email.prolific.co,32,2023-07-20_21h15.18.900,templeton2A_SD_practice,2020.2.10,Win32,60,,,,,,,,,,,,,,,,,,,2,,,,,,,,,,,,,,,,,,,,,,,,,,,,,,,,,,,,,,,,,,,,,,,,,,,,,,,,,,,,,,,,,,,,,,,,,,,,,,,,,,,,,,,,,,,,,,,,
,,,,,,,61744ea309ea03a24ac76ed1@email.prolific.co,32,2023-07-20_21h15.18.900,templeton2A_SD_practice,2020.2.10,Win32,60,,,,,,,,,,,,,,,,,,,2,,,,,,,,,,,,,,,,,,,,,,,,,,,,,,,,,,,,,,,,,,,,,,,,,,,,,,,,,,,,,,,,,,,,,,,,,,,,,,,,,,,,,,,,,,,,,,,,
,,,,,,,61744ea309ea03a24ac76ed1@email.prolific.co,32,2023-07-20_21h15.18.900,templeton2A_SD_practice,2020.2.10,Win32,60,,,,,,,,,,,,,,,,,,,2,,,,,,,,,,,,,,,,,,,,,,,,,,,,,,,,,,,,,,,,,,,,,,,,,,,,,,,,,,,,,,,,,,,,,,,,,,,,,,,,,,,,,,,,,,,,,,,,
,,,,,,,61744ea309ea03a24ac76ed1@email.prolific.co,32,2023-07-20_21h15.18.900,templeton2A_SD_practice,2020.2.10,Win32,60,,,,,,,,,,,,,,,,,,,2,,,,,,,,,,,,,,,,,,,,,,,,,,,,,,,,,,,,,,,,,,,,,,,,,,,,,,,,,,,,,,,,,,,,,,,,,,,,,,,,,,,,,,,,,,,,,,,,
,,,,,,,61744ea309ea03a24ac76ed1@email.prolific.co,32,2023-07-20_21h15.18.900,templeton2A_SD_practice,2020.2.10,Win32,60,,,,,,,,,,,,,,,,,,,2,,,,,,,,,,,,,,,,,,,,,,,,,,,,,,,,,,,,,,,,,,,,,,,,,,,,,,,,,,,,,,,,,,,,,,,,,,,,,,,,,,,,,,,,,,,,,,,,
,,,,,,,61744ea309ea03a24ac76ed1@email.prolific.co,32,2023-07-20_21h15.18.900,templeton2A_SD_practice,2020.2.10,Win32,60,,,,,,,,,,,,,,,,,,,2,,,,,,,,,,,,,,,,,,,,,,,,,,,,,,,,,,,,,,,,,,,,,,,,,,,,,,,,,,,,,,,,,,,,,,,,,,,,,,,,,,,,,,,,,,,,,,,,
,,,,,,,61744ea309ea03a24ac76ed1@email.prolific.co,32,2023-07-20_21h15.18.900,templeton2A_SD_practice,2020.2.10,Win32,60,,,,,,,,,,,,,,,,,,,2,,,,,,,,,,,,,,,,,,,,,,,,,,,,,,,,,,,,,,,,,,,,,,,,,,,,,,,,,,,,,,,,,,,,,,,,,,,,,,,,,,,,,,,,,,,,,,,,
,,,,,,,61744ea309ea03a24ac76ed1@email.prolific.co,32,2023-07-20_21h15.18.900,templeton2A_SD_practice,2020.2.10,Win32,60,,,,,,,,,,,,,,,,,,,2,,,,,,,,,,,,,,,,,,,,,,,,,,,,,,,,,,,,,,,,,,,,,,,,,,,,,,,,,,,,,,,,,,,,,,,,,,,,,,,,,,,,,,,,,,,,,,,,
,,,,,,,61744ea309ea03a24ac76ed1@email.prolific.co,32,2023-07-20_21h15.18.900,templeton2A_SD_practice,2020.2.10,Win32,60,,,,,,,,,,,,,,,,,,,2,,,,,,,,,,,,,,,,,,,,,,,,,,,,,,,,,,,,,,,,,,,,,,,,,,,,,,,,,,,,,,,,,,,,,,,,,,,,,,,,,,,,,,,,,,,,,,,,
,,,,,,,61744ea309ea03a24ac76ed1@email.prolific.co,32,2023-07-20_21h15.18.900,templeton2A_SD_practice,2020.2.10,Win32,60,,,,,,,,,,,,,,,,,,,2,,,,,,,,,,,,,,,,,,,,,,,,,,,,,,,,,,,,,,,,,,,,,,,,,,,,,,,,,,,,,,,,,,,,,,,,,,,,,,,,,,,,,,,,,,,,,,,,
,,,,,,,61744ea309ea03a24ac76ed1@email.prolific.co,32,2023-07-20_21h15.18.900,templeton2A_SD_practice,2020.2.10,Win32,60,,,,,,,,,,,,,,,,,,,2,,,,,,,,,,,,,,,,,,,,,,,,,,,,,,,,,,,,,,,,,,,,,,,,,,,,,,,,,,,,,,,,,,,,,,,,,,,,,,,,,,,,,,,,,,,,,,,,
,,,,,,,61744ea309ea03a24ac76ed1@email.prolific.co,32,2023-07-20_21h15.18.900,templeton2A_SD_practice,2020.2.10,Win32,60,,,,,,,,,,,,,,,,,,,2,,,,,,,,,,,,,,,,,,,,,,,,,,,,,,,,,,,,,,,,,,,,,,,,,,,,,,,,,,,,,,,,,,,,,,,,,,,,,,,,,,,,,,,,,,,,,,,,
,,,,,,,61744ea309ea03a24ac76ed1@email.prolific.co,32,2023-07-20_21h15.18.900,templeton2A_SD_practice,2020.2.10,Win32,60,,,,,,,,,,,,,,,,,,,2,,,,,,,,,,,,,,,,,,,,,,,,,,,,,,,,,,,,,,,,,,,,,,,,,,,,,,,,,,,,,,,,,,,,,,,,,,,,,,,,,,,,,,,,,,,,,,,,
,,,,,,,61744ea309ea03a24ac76ed1@email.prolific.co,32,2023-07-20_21h15.18.900,templeton2A_SD_practice,2020.2.10,Win32,60,,,,,,,,,,,,,,,,,,,2,,,,,,,,,,,,,,,,,,,,,,,,,,,,,,,,,,,,,,,,,,,,,,,,,,,,,,,,,,,,,,,,,,,,,,,,,,,,,,,,,,,,,,,,,,,,,,,,
,,,,,,,61744ea309ea03a24ac76ed1@email.prolific.co,32,2023-07-20_21h15.18.900,templeton2A_SD_practice,2020.2.10,Win32,60,,,,,,,,,,,,,,,,,,,2,,,,,,,,,,,,,,,,,,,,,,,,,,,,,,,,,,,,,,,,,,,,,,,,,,,,,,,,,,,,,,,,,,,,,,,,,,,,,,,,,,,,,,,,,,,,,,,,
,,,,,,,61744ea309ea03a24ac76ed1@email.prolific.co,32,2023-07-20_21h15.18.900,templeton2A_SD_practice,2020.2.10,Win32,60,,,,,,,,,,,,,,,,,,,2,,,,,,,,,,,,,,,,,,,,,,,,,,,,,,,,,,,,,,,,,,,,,,,,,,,,,,,,,,,,,,,,,,,,,,,,,,,,,,,,,,,,,,,,,,,,,,,,
,,,,,,,61744ea309ea03a24ac76ed1@email.prolific.co,32,2023-07-20_21h15.18.900,templeton2A_SD_practice,2020.2.10,Win32,60,,,,,,,,,,,,,,,,,,,2,,,,,,,,,,,,,,,,,,,,,,,,,,,,,,,,,,,,,,,,,,,,,,,,,,,,,,,,,,,,,,,,,,,,,,,,,,,,,,,,,,,,,,,,,,,,,,,,
,,,,,,,61744ea309ea03a24ac76ed1@email.prolific.co,32,2023-07-20_21h15.18.900,templeton2A_SD_practice,2020.2.10,Win32,60,,,,,,,,,,,,,,,,,,,2,,,,,,,,,,,,,,,,,,,,,,,,,,,,,,,,,,,,,,,,,,,,,,,,,,,,,,,,,,,,,,,,,,,,,,,,,,,,,,,,,,,,,,,,,,,,,,,,
,,,,,,,61744ea309ea03a24ac76ed1@email.prolific.co,32,2023-07-20_21h15.18.900,templeton2A_SD_practice,2020.2.10,Win32,60,,,,,,,,,,,,,,,,,,,2,,,,,,,,,,,,,,,,,,,,,,,,,,,,,,,,,,,,,,,,,,,,,,,,,,,,,,,,,,,,,,,,,,,,,,,,,,,,,,,,,,,,,,,,,,,,,,,,
,,,,,,,61744ea309ea03a24ac76ed1@email.prolific.co,32,2023-07-20_21h15.18.900,templeton2A_SD_practice,2020.2.10,Win32,60,,,,,,,,,,,,,,,,,,,2,,,,,,,,,,,,,,,,,,,,,,,,,,,,,,,,,,,,,,,,,,,,,,,,,,,,,,,,,,,,,,,,,,,,,,,,,,,,,,,,,,,,,,,,,,,,,,,,
,,,,,,,61744ea309ea03a24ac76ed1@email.prolific.co,32,2023-07-20_21h15.18.900,templeton2A_SD_practice,2020.2.10,Win32,60,,,,,,,,,,,,,,,,,,,4,,,,,,,,,,,,,,,,,,,,,,,,,,,,,,,,,,,,,,,,,,,,,,,,,,,,,,,,,,,,,,,,,,,,,,,,,,,,,,,,,,,,,,,,,,,,,,,,
,,,,,,,61744ea309ea03a24ac76ed1@email.prolific.co,32,2023-07-20_21h15.18.900,templeton2A_SD_practice,2020.2.10,Win32,60,,,,,,,,,,,,,,,,,,,4,,,,,,,,,,,,,,,,,,,,,,,,,,,,,,,,,,,,,,,,,,,,,,,,,,,,,,,,,,,,,,,,,,,,,,,,,,,,,,,,,,,,,,,,,,,,,,,,
,,,,,,,61744ea309ea03a24ac76ed1@email.prolific.co,32,2023-07-20_21h15.18.900,templeton2A_SD_practice,2020.2.10,Win32,60,,,,,,,,,,,,,,,,,,,3,,,,,,,,,,,,,,,,,,,,,,,,,,,,,,,,,,,,,,,,,,,,,,,,,,,,,,,,,,,,,,,,,,,,,,,,,,,,,,,,,,,,,,,,,,,,,,,,
,,,,,,,61744ea309ea03a24ac76ed1@email.prolific.co,32,2023-07-20_21h15.18.900,templeton2A_SD_practice,2020.2.10,Win32,60,,,,,,,,,,,,,,,,,,,3,,,,,,,,,,,,,,,,,,,,,,,,,,,,,,,,,,,,,,,,,,,,,,,,,,,,,,,,,,,,,,,,,,,,,,,,,,,,,,,,,,,,,,,,,,,,,,,,
,,,,,,,61744ea309ea03a24ac76ed1@email.prolific.co,32,2023-07-20_21h15.18.900,templeton2A_SD_practice,2020.2.10,Win32,60,,,,,,,,,,,,,,,,,,,3,,,,,,,,,,,,,,,,,,,,,,,,,,,,,,,,,,,,,,,,,,,,,,,,,,,,,,,,,,,,,,,,,,,,,,,,,,,,,,,,,,,,,,,,,,,,,,,,
,,,,,,,61744ea309ea03a24ac76ed1@email.prolific.co,32,2023-07-20_21h15.18.900,templeton2A_SD_practice,2020.2.10,Win32,60,,,,,,,,,,,,,,,,,,,3,,,,,,,,,,,,,,,,,,,,,,,,,,,,,,,,,,,,,,,,,,,,,,,,,,,,,,,,,,,,,,,,,,,,,,,,,,,,,,,,,,,,,,,,,,,,,,,,
,,,,,,,61744ea309ea03a24ac76ed1@email.prolific.co,32,2023-07-20_21h15.18.900,templeton2A_SD_practice,2020.2.10,Win32,60,,,,,,,,,,,,,,,,,,,3,,,,,,,,,,,,,,,,,,,,,,,,,,,,,,,,,,,,,,,,,,,,,,,,,,,,,,,,,,,,,,,,,,,,,,,,,,,,,,,,,,,,,,,,,,,,,,,,
,,,,,,,61744ea309ea03a24ac76ed1@email.prolific.co,32,2023-07-20_21h15.18.900,templeton2A_SD_practice,2020.2.10,Win32,60,,,,,,,,,,,,,,,,,,,3,,,,,,,,,,,,,,,,,,,,,,,,,,,,,,,,,,,,,,,,,,,,,,,,,,,,,,,,,,,,,,,,,,,,,,,,,,,,,,,,,,,,,,,,,,,,,,,,
,,,,,,,61744ea309ea03a24ac76ed1@email.prolific.co,32,2023-07-20_21h15.18.900,templeton2A_SD_practice,2020.2.10,Win32,60,,,,,,,,,,,,,,,,,,,1,,,,,,,,,,,,,,,,,,,,,,,,,,,,,,,,,,,,,,,,,,,,,,,,,,,,,,,,,,,,,,,,,,,,,,,,,,,,,,,,,,,,,,,,,,,,,,,,
,,,,,,,61744ea309ea03a24ac76ed1@email.prolific.co,32,2023-07-20_21h15.18.900,templeton2A_SD_practice,2020.2.10,Win32,60,,,,,,,,,,,,,,,,,,,1,,,,,,,,,,,,,,,,,,,,,,,,,,,,,,,,,,,,,,,,,,,,,,,,,,,,,,,,,,,,,,,,,,,,,,,,,,,,,,,,,,,,,,,,,,,,,,,,
,,,,,,,61744ea309ea03a24ac76ed1@email.prolific.co,32,2023-07-20_21h15.18.900,templeton2A_SD_practice,2020.2.10,Win32,60,,,,,,,,,,,,,,,,,,,2,,,,,,,,,,,,,,,,,,,,,,,,,,,,,,,,,,,,,,,,,,,,,,,,,,,,,,,,,,,,,,,,,,,,,,,,,,,,,,,,,,,,,,,,,,,,,,,,
,,,,,,,61744ea309ea03a24ac76ed1@email.prolific.co,32,2023-07-20_21h15.18.900,templeton2A_SD_practice,2020.2.10,Win32,60,,,,,,,,,,,,,,,,,,,2,,,,,,,,,,,,,,,,,,,,,,,,,,,,,,,,,,,,,,,,,,,,,,,,,,,,,,,,,,,,,,,,,,,,,,,,,,,,,,,,,,,,,,,,,,,,,,,,
,,,,,,,61744ea309ea03a24ac76ed1@email.prolific.co,32,2023-07-20_21h15.18.900,templeton2A_SD_practice,2020.2.10,Win32,60,,,,,,,,,,,,,,,,,,,2,,,,,,,,,,,,,,,,,,,,,,,,,,,,,,,,,,,,,,,,,,,,,,,,,,,,,,,,,,,,,,,,,,,,,,,,,,,,,,,,,,,,,,,,,,,,,,,,
,,,,,,,61744ea309ea03a24ac76ed1@email.prolific.co,32,2023-07-20_21h15.18.900,templeton2A_SD_practice,2020.2.10,Win32,60,,,,,,,,,,,,,,,,,,,2,,,,,,,,,,,,,,,,,,,,,,,,,,,,,,,,,,,,,,,,,,,,,,,,,,,,,,,,,,,,,,,,,,,,,,,,,,,,,,,,,,,,,,,,,,,,,,,,
,,,,,,,61744ea309ea03a24ac76ed1@email.prolific.co,32,2023-07-20_21h15.18.900,templeton2A_SD_practice,2020.2.10,Win32,60,,,,,,,,,,,,,,,,,,,2,,,,,,,,,,,,,,,,,,,,,,,,,,,,,,,,,,,,,,,,,,,,,,,,,,,,,,,,,,,,,,,,,,,,,,,,,,,,,,,,,,,,,,,,,,,,,,,,
,,,,,,,61744ea309ea03a24ac76ed1@email.prolific.co,32,2023-07-20_21h15.18.900,templeton2A_SD_practice,2020.2.10,Win32,60,,,,,,,,,,,,,,,,,,,2,,,,,,,,,,,,,,,,,,,,,,,,,,,,,,,,,,,,,,,,,,,,,,,,,,,,,,,,,,,,,,,,,,,,,,,,,,,,,,,,,,,,,,,,,,,,,,,,
,,,,,,,61744ea309ea03a24ac76ed1@email.prolific.co,32,2023-07-20_21h15.18.900,templeton2A_SD_practice,2020.2.10,Win32,60,,,,,,,,,,,,,,,,,,,2,,,,,,,,,,,,,,,,,,,,,,,,,,,,,,,,,,,,,,,,,,,,,,,,,,,,,,,,,,,,,,,,,,,,,,,,,,,,,,,,,,,,,,,,,,,,,,,,
,,,,,,,61744ea309ea03a24ac76ed1@email.prolific.co,32,2023-07-20_21h15.18.900,templeton2A_SD_practice,2020.2.10,Win32,60,,,,,,,,,,,,,,,,,,,2,,,,,,,,,,,,,,,,,,,,,,,,,,,,,,,,,,,,,,,,,,,,,,,,,,,,,,,,,,,,,,,,,,,,,,,,,,,,,,,,,,,,,,,,,,,,,,,,
,,,,,,,61744ea309ea03a24ac76ed1@email.prolific.co,32,2023-07-20_21h15.18.900,templeton2A_SD_practice,2020.2.10,Win32,60,,,,,,,,,,,,,,,,,,,2,,,,,,,,,,,,,,,,,,,,,,,,,,,,,,,,,,,,,,,,,,,,,,,,,,,,,,,,,,,,,,,,,,,,,,,,,,,,,,,,,,,,,,,,,,,,,,,,
,,,,,,,61744ea309ea03a24ac76ed1@email.prolific.co,32,2023-07-20_21h15.18.900,templeton2A_SD_practice,2020.2.10,Win32,60,,,,,,,,,,,,,,,,,,,2,,,,,,,,,,,,,,,,,,,,,,,,,,,,,,,,,,,,,,,,,,,,,,,,,,,,,,,,,,,,,,,,,,,,,,,,,,,,,,,,,,,,,,,,,,,,,,,,
,,,,,,,61744ea309ea03a24ac76ed1@email.prolific.co,32,2023-07-20_21h15.18.900,templeton2A_SD_practice,2020.2.10,Win32,60,,,,,,,,,,,,,,,,,,,2,,,,,,,,,,,,,,,,,,,,,,,,,,,,,,,,,,,,,,,,,,,,,,,,,,,,,,,,,,,,,,,,,,,,,,,,,,,,,,,,,,,,,,,,,,,,,,,,
,,,,,,,61744ea309ea03a24ac76ed1@email.prolific.co,32,2023-07-20_21h15.18.900,templeton2A_SD_practice,2020.2.10,Win32,60,,,,,,,,,,,,,,,,,,,4,,,,,,,,,,,,,,,,,,,,,,,,,,,,,,,,,,,,,,,,,,,,,,,,,,,,,,,,,,,,,,,,,,,,,,,,,,,,,,,,,,,,,,,,,,,,,,,,
,,,,,,,61744ea309ea03a24ac76ed1@email.prolific.co,32,2023-07-20_21h15.18.900,templeton2A_SD_practice,2020.2.10,Win32,60,,,,,,,,,,,,,,,,,,,4,,,,,,,,,,,,,,,,,,,,,,,,,,,,,,,,,,,,,,,,,,,,,,,,,,,,,,,,,,,,,,,,,,,,,,,,,,,,,,,,,,,,,,,,,,,,,,,,
,,,,,,,61744ea309ea03a24ac76ed1@email.prolific.co,32,2023-07-20_21h15.18.900,templeton2A_SD_practice,2020.2.10,Win32,60,,,,,,,,,,,,,,,,,,,4,,,,,,,,,,,,,,,,,,,,,,,,,,,,,,,,,,,,,,,,,,,,,,,,,,,,,,,,,,,,,,,,,,,,,,,,,,,,,,,,,,,,,,,,,,,,,,,,
,,,,,,,61744ea309ea03a24ac76ed1@email.prolific.co,32,2023-07-20_21h15.18.900,templeton2A_SD_practice,2020.2.10,Win32,60,,,,,,,,,,,,,,,,,,,4,,,,,,,,,,,,,,,,,,,,,,,,,,,,,,,,,,,,,,,,,,,,,,,,,,,,,,,,,,,,,,,,,,,,,,,,,,,,,,,,,,,,,,,,,,,,,,,,
,,,,,,,61744ea309ea03a24ac76ed1@email.prolific.co,32,2023-07-20_21h15.18.900,templeton2A_SD_practice,2020.2.10,Win32,60,,,,,,,,,,,,,,,,,,,4,,,,,,,,,,,,,,,,,,,,,,,,,,,,,,,,,,,,,,,,,,,,,,,,,,,,,,,,,,,,,,,,,,,,,,,,,,,,,,,,,,,,,,,,,,,,,,,,
,,,,,,,61744ea309ea03a24ac76ed1@email.prolific.co,32,2023-07-20_21h15.18.900,templeton2A_SD_practice,2020.2.10,Win32,60,,,,,,,,,,,,,,,,,,,3,,,,,,,,,,,,,,,,,,,,,,,,,,,,,,,,,,,,,,,,,,,,,,,,,,,,,,,,,,,,,,,,,,,,,,,,,,,,,,,,,,,,,,,,,,,,,,,,
,,,,,,,61744ea309ea03a24ac76ed1@email.prolific.co,32,2023-07-20_21h15.18.900,templeton2A_SD_practice,2020.2.10,Win32,60,,,,,,,,,,,,,,,,,,,2,,,,,,,,,,,,,,,,,,,,,,,,,,,,,,,,,,,,,,,,,,,,,,,,,,,,,,,,,,,,,,,,,,,,,,,,,,,,,,,,,,,,,,,,,,,,,,,,
,,,,,,,61744ea309ea03a24ac76ed1@email.prolific.co,32,2023-07-20_21h15.18.900,templeton2A_SD_practice,2020.2.10,Win32,60,,,,,,,,,,,,,,,,,,,2,,,,,,,,,,,,,,,,,,,,,,,,,,,,,,,,,,,,,,,,,,,,,,,,,,,,,,,,,,,,,,,,,,,,,,,,,,,,,,,,,,,,,,,,,,,,,,,,
,,,,,,,61744ea309ea03a24ac76ed1@email.prolific.co,32,2023-07-20_21h15.18.900,templeton2A_SD_practice,2020.2.10,Win32,60,,,,,,,,,,,,,,,,,,,2,,,,,,,,,,,,,,,,,,,,,,,,,,,,,,,,,,,,,,,,,,,,,,,,,,,,,,,,,,,,,,,,,,,,,,,,,,,,,,,,,,,,,,,,,,,,,,,,
,,,,,,,61744ea309ea03a24ac76ed1@email.prolific.co,32,2023-07-20_21h15.18.900,templeton2A_SD_practice,2020.2.10,Win32,60,,,,,,,,,,,,,,,,,,,2,,,,,,,,,,,,,,,,,,,,,,,,,,,,,,,,,,,,,,,,,,,,,,,,,,,,,,,,,,,,,,,,,,,,,,,,,,,,,,,,,,,,,,,,,,,,,,,,
,,,,,,,61744ea309ea03a24ac76ed1@email.prolific.co,32,2023-07-20_21h15.18.900,templeton2A_SD_practice,2020.2.10,Win32,60,,,,,,,,,,,,,,,,,,,2,,,,,,,,,,,,,,,,,,,,,,,,,,,,,,,,,,,,,,,,,,,,,,,,,,,,,,,,,,,,,,,,,,,,,,,,,,,,,,,,,,,,,,,,,,,,,,,,
,,,,,,,61744ea309ea03a24ac76ed1@email.prolific.co,32,2023-07-20_21h15.18.900,templeton2A_SD_practice,2020.2.10,Win32,60,,,,,,,,,,,,,,,,,,,2,,,,,,,,,,,,,,,,,,,,,,,,,,,,,,,,,,,,,,,,,,,,,,,,,,,,,,,,,,,,,,,,,,,,,,,,,,,,,,,,,,,,,,,,,,,,,,,,
,,,,,,,61744ea309ea03a24ac76ed1@email.prolific.co,32,2023-07-20_21h15.18.900,templeton2A_SD_practice,2020.2.10,Win32,60,,,,,,,,,,,,,,,,,,,2,,,,,,,,,,,,,,,,,,,,,,,,,,,,,,,,,,,,,,,,,,,,,,,,,,,,,,,,,,,,,,,,,,,,,,,,,,,,,,,,,,,,,,,,,,,,,,,,
,,,,,,,61744ea309ea03a24ac76ed1@email.prolific.co,32,2023-07-20_21h15.18.900,templeton2A_SD_practice,2020.2.10,Win32,60,,,,,,,,,,,,,,,,,,,,39.6,40.4,280.5049,,,,,,,,,,,,,,,,,,,,,,,,,,,,,,,,,,,,,,,,,,,,,,,,,,,,,,,,,,,,,,,,,,,,,,,,,,,,,,,,,,,,,,,,,,,,,
,,,,,,,61744ea309ea03a24ac76ed1@email.prolific.co,32,2023-07-20_21h15.18.900,templeton2A_SD_practice,2020.2.10,Win32,60,,,,,,,,,,,,,,,,,,,,,,,0.0025,5.31521293,,,,,,,,,,,,,,,,,,,,,,,,,,,,,,,,,,,,,,,,,,,,,,,,,,,,,,,,,,,,,,,,,,,,,,,,,,,,,,,,,,,,,,,,,,,
,,,,,,,61744ea309ea03a24ac76ed1@email.prolific.co,32,2023-07-20_21h15.18.900,templeton2A_SD_practice,2020.2.10,Win32,60,,,,,,,,,,,,,,,,,,,,,,,0.0154,5.31521293,,,,,,,,,,,,,,,,,,,,,,,,,,,,,,,,,,,,,,,,,,,,,,,,,,,,,,,,,,,,,,,,,,,,,,,,,,,,,,,,,,,,,,,,,,,
,,,,,,,61744ea309ea03a24ac76ed1@email.prolific.co,32,2023-07-20_21h15.18.900,templeton2A_SD_practice,2020.2.10,Win32,60,,,,,,,,,,,,,,,,,,,,,,,0.4457,5.31521293,,,,,,,,,,,,,,,,,,,,,,,,,,,,,,,,,,,,,,,,,,,,,,,,,,,,,,,,,,,,,,,,,,,,,,,,,,,,,,,,,,,,,,,,,,,
,,,,,,,61744ea309ea03a24ac76ed1@email.prolific.co,32,2023-07-20_21h15.18.900,templeton2A_SD_practice,2020.2.10,Win32,60,,,,,,,,,,,,,,,,,,,,,,,0.4597,5.31521293,,,,,,,,,,,,,,,,,,,,,,,,,,,,,,,,,,,,,,,,,,,,,,,,,,,,,,,,,,,,,,,,,,,,,,,,,,,,,,,,,,,,,,,,,,,
,,,,,,,61744ea309ea03a24ac76ed1@email.prolific.co,32,2023-07-20_21h15.18.900,templeton2A_SD_practice,2020.2.10,Win32,60,,,,,,,,,,,,,,,,,,,,,,,0.4757,5.31521293,,,,,,,,,,,,,,,,,,,,,,,,,,,,,,,,,,,,,,,,,,,,,,,,,,,,,,,,,,,,,,,,,,,,,,,,,,,,,,,,,,,,,,,,,,,
,,,,,,,61744ea309ea03a24ac76ed1@email.prolific.co,32,2023-07-20_21h15.18.900,templeton2A_SD_practice,2020.2.10,Win32,60,,,,,,,,,,,,,,,,,,,,,,,0.492,5.31521293,,,,,,,,,,,,,,,,,,,,,,,,,,,,,,,,,,,,,,,,,,,,,,,,,,,,,,,,,,,,,,,,,,,,,,,,,,,,,,,,,,,,,,,,,,,
,,,,,,,61744ea309ea03a24ac76ed1@email.prolific.co,32,2023-07-20_21h15.18.900,templeton2A_SD_practice,2020.2.10,Win32,60,,,,,,,,,,,,,,,,,,,,,,,0.5088,5.31521293,,,,,,,,,,,,,,,,,,,,,,,,,,,,,,,,,,,,,,,,,,,,,,,,,,,,,,,,,,,,,,,,,,,,,,,,,,,,,,,,,,,,,,,,,,,
,,,,,,,61744ea309ea03a24ac76ed1@email.prolific.co,32,2023-07-20_21h15.18.900,templeton2A_SD_practice,2020.2.10,Win32,60,,,,,,,,,,,,,,,,,,,,,,,0.5261,5.31521293,,,,,,,,,,,,,,,,,,,,,,,,,,,,,,,,,,,,,,,,,,,,,,,,,,,,,,,,,,,,,,,,,,,,,,,,,,,,,,,,,,,,,,,,,,,
,,,,,,,61744ea309ea03a24ac76ed1@email.prolific.co,32,2023-07-20_21h15.18.900,templeton2A_SD_practice,2020.2.10,Win32,60,,,,,,,,,,,,,,,,,,,,,,,0.5421,5.31521293,,,,,,,,,,,,,,,,,,,,,,,,,,,,,,,,,,,,,,,,,,,,,,,,,,,,,,,,,,,,,,,,,,,,,,,,,,,,,,,,,,,,,,,,,,,
,,,,,,,61744ea309ea03a24ac76ed1@email.prolific.co,32,2023-07-20_21h15.18.900,templeton2A_SD_practice,2020.2.10,Win32,60,,,,,,,,,,,,,,,,,,,,,,,0.5588,5.31521293,,,,,,,,,,,,,,,,,,,,,,,,,,,,,,,,,,,,,,,,,,,,,,,,,,,,,,,,,,,,,,,,,,,,,,,,,,,,,,,,,,,,,,,,,,,
,,,,,,,61744ea309ea03a24ac76ed1@email.prolific.co,32,2023-07-20_21h15.18.900,templeton2A_SD_practice,2020.2.10,Win32,60,,,,,,,,,,,,,,,,,,,,,,,0.5754,5.31521293,,,,,,,,,,,,,,,,,,,,,,,,,,,,,,,,,,,,,,,,,,,,,,,,,,,,,,,,,,,,,,,,,,,,,,,,,,,,,,,,,,,,,,,,,,,
,,,,,,,61744ea309ea03a24ac76ed1@email.prolific.co,32,2023-07-20_21h15.18.900,templeton2A_SD_practice,2020.2.10,Win32,60,,,,,,,,,,,,,,,,,,,,,,,0.5922,5.31521293,,,,,,,,,,,,,,,,,,,,,,,,,,,,,,,,,,,,,,,,,,,,,,,,,,,,,,,,,,,,,,,,,,,,,,,,,,,,,,,,,,,,,,,,,,,
,,,,,,,61744ea309ea03a24ac76ed1@email.prolific.co,32,2023-07-20_21h15.18.900,templeton2A_SD_practice,2020.2.10,Win32,60,,,,,,,,,,,,,,,,,,,,,,,0.6087,5.31521293,,,,,,,,,,,,,,,,,,,,,,,,,,,,,,,,,,,,,,,,,,,,,,,,,,,,,,,,,,,,,,,,,,,,,,,,,,,,,,,,,,,,,,,,,,,
,,,,,,,61744ea309ea03a24ac76ed1@email.prolific.co,32,2023-07-20_21h15.18.900,templeton2A_SD_practice,2020.2.10,Win32,60,,,,,,,,,,,,,,,,,,,,,,,0.6254,5.31521293,,,,,,,,,,,,,,,,,,,,,,,,,,,,,,,,,,,,,,,,,,,,,,,,,,,,,,,,,,,,,,,,,,,,,,,,,,,,,,,,,,,,,,,,,,,
,,,,,,,61744ea309ea03a24ac76ed1@email.prolific.co,32,2023-07-20_21h15.18.900,templeton2A_SD_practice,2020.2.10,Win32,60,,,,,,,,,,,,,,,,,,,,,,,0.642,5.31521293,,,,,,,,,,,,,,,,,,,,,,,,,,,,,,,,,,,,,,,,,,,,,,,,,,,,,,,,,,,,,,,,,,,,,,,,,,,,,,,,,,,,,,,,,,,
,,,,,,,61744ea309ea03a24ac76ed1@email.prolific.co,32,2023-07-20_21h15.18.900,templeton2A_SD_practice,2020.2.10,Win32,60,,,,,,,,,,,,,,,,,,,,,,,0.6582,5.31521293,,,,,,,,,,,,,,,,,,,,,,,,,,,,,,,,,,,,,,,,,,,,,,,,,,,,,,,,,,,,,,,,,,,,,,,,,,,,,,,,,,,,,,,,,,,
,,,,,,,61744ea309ea03a24ac76ed1@email.prolific.co,32,2023-07-20_21h15.18.900,templeton2A_SD_practice,2020.2.10,Win32,60,,,,,,,,,,,,,,,,,,,,,,,0.6754,5.31521293,,,,,,,,,,,,,,,,,,,,,,,,,,,,,,,,,,,,,,,,,,,,,,,,,,,,,,,,,,,,,,,,,,,,,,,,,,,,,,,,,,,,,,,,,,,
,,,,,,,61744ea309ea03a24ac76ed1@email.prolific.co,32,2023-07-20_21h15.18.900,templeton2A_SD_practice,2020.2.10,Win32,60,,,,,,,,,,,,,,,,,,,,,,,0.692,5.31521293,,,,,,,,,,,,,,,,,,,,,,,,,,,,,,,,,,,,,,,,,,,,,,,,,,,,,,,,,,,,,,,,,,,,,,,,,,,,,,,,,,,,,,,,,,,
,,,,,,,61744ea309ea03a24ac76ed1@email.prolific.co,32,2023-07-20_21h15.18.900,templeton2A_SD_practice,2020.2.10,Win32,60,,,,,,,,,,,,,,,,,,,,,,,0.7086,5.31521293,,,,,,,,,,,,,,,,,,,,,,,,,,,,,,,,,,,,,,,,,,,,,,,,,,,,,,,,,,,,,,,,,,,,,,,,,,,,,,,,,,,,,,,,,,,
,,,,,,,61744ea309ea03a24ac76ed1@email.prolific.co,32,2023-07-20_21h15.18.900,templeton2A_SD_practice,2020.2.10,Win32,60,,,,,,,,,,,,,,,,,,,,,,,0.7251,5.31521293,,,,,,,,,,,,,,,,,,,,,,,,,,,,,,,,,,,,,,,,,,,,,,,,,,,,,,,,,,,,,,,,,,,,,,,,,,,,,,,,,,,,,,,,,,,
,,,,,,,61744ea309ea03a24ac76ed1@email.prolific.co,32,2023-07-20_21h15.18.900,templeton2A_SD_practice,2020.2.10,Win32,60,,,,,,,,,,,,,,,,,,,,,,,0.7419,5.31521293,,,,,,,,,,,,,,,,,,,,,,,,,,,,,,,,,,,,,,,,,,,,,,,,,,,,,,,,,,,,,,,,,,,,,,,,,,,,,,,,,,,,,,,,,,,
,,,,,,,61744ea309ea03a24ac76ed1@email.prolific.co,32,2023-07-20_21h15.18.900,templeton2A_SD_practice,2020.2.10,Win32,60,,,,,,,,,,,,,,,,,,,,,,,0.7586,5.31521293,,,,,,,,,,,,,,,,,,,,,,,,,,,,,,,,,,,,,,,,,,,,,,,,,,,,,,,,,,,,,,,,,,,,,,,,,,,,,,,,,,,,,,,,,,,
,,,,,,,61744ea309ea03a24ac76ed1@email.prolific.co,32,2023-07-20_21h15.18.900,templeton2A_SD_practice,2020.2.10,Win32,60,,,,,,,,,,,,,,,,,,,,,,,0.7749,5.31521293,,,,,,,,,,,,,,,,,,,,,,,,,,,,,,,,,,,,,,,,,,,,,,,,,,,,,,,,,,,,,,,,,,,,,,,,,,,,,,,,,,,,,,,,,,,
,,,,,,,61744ea309ea03a24ac76ed1@email.prolific.co,32,2023-07-20_21h15.18.900,templeton2A_SD_practice,2020.2.10,Win32,60,,,,,,,,,,,,,,,,,,,,,,,0.7918,5.31521293,,,,,,,,,,,,,,,,,,,,,,,,,,,,,,,,,,,,,,,,,,,,,,,,,,,,,,,,,,,,,,,,,,,,,,,,,,,,,,,,,,,,,,,,,,,
,,,,,,,61744ea309ea03a24ac76ed1@email.prolific.co,32,2023-07-20_21h15.18.900,templeton2A_SD_practice,2020.2.10,Win32,60,,,,,,,,,,,,,,,,,,,,,,,0.8085,5.31521293,,,,,,,,,,,,,,,,,,,,,,,,,,,,,,,,,,,,,,,,,,,,,,,,,,,,,,,,,,,,,,,,,,,,,,,,,,,,,,,,,,,,,,,,,,,
,,,,,,,61744ea309ea03a24ac76ed1@email.prolific.co,32,2023-07-20_21h15.18.900,templeton2A_SD_practice,2020.2.10,Win32,60,,,,,,,,,,,,,,,,,,,,,,,0.8252,5.31521293,,,,,,,,,,,,,,,,,,,,,,,,,,,,,,,,,,,,,,,,,,,,,,,,,,,,,,,,,,,,,,,,,,,,,,,,,,,,,,,,,,,,,,,,,,,
,,,,,,,61744ea309ea03a24ac76ed1@email.prolific.co,32,2023-07-20_21h15.18.900,templeton2A_SD_practice,2020.2.10,Win32,60,,,,,,,,,,,,,,,,,,,,,,,0.8418,5.31521293,,,,,,,,,,,,,,,,,,,,,,,,,,,,,,,,,,,,,,,,,,,,,,,,,,,,,,,,,,,,,,,,,,,,,,,,,,,,,,,,,,,,,,,,,,,
,,,,,,,61744ea309ea03a24ac76ed1@email.prolific.co,32,2023-07-20_21h15.18.900,templeton2A_SD_practice,2020.2.10,Win32,60,,,,,,,,,,,,,,,,,,,,,,,0.8586,5.31521293,,,,,,,,,,,,,,,,,,,,,,,,,,,,,,,,,,,,,,,,,,,,,,,,,,,,,,,,,,,,,,,,,,,,,,,,,,,,,,,,,,,,,,,,,,,
,,,,,,,61744ea309ea03a24ac76ed1@email.prolific.co,32,2023-07-20_21h15.18.900,templeton2A_SD_practice,2020.2.10,Win32,60,,,,,,,,,,,,,,,,,,,,,,,0.8751,5.31521293,,,,,,,,,,,,,,,,,,,,,,,,,,,,,,,,,,,,,,,,,,,,,,,,,,,,,,,,,,,,,,,,,,,,,,,,,,,,,,,,,,,,,,,,,,,
,,,,,,,61744ea309ea03a24ac76ed1@email.prolific.co,32,2023-07-20_21h15.18.900,templeton2A_SD_practice,2020.2.10,Win32,60,,,,,,,,,,,,,,,,,,,,,,,0.8917,5.31521293,,,,,,,,,,,,,,,,,,,,,,,,,,,,,,,,,,,,,,,,,,,,,,,,,,,,,,,,,,,,,,,,,,,,,,,,,,,,,,,,,,,,,,,,,,,
,,,,,,,61744ea309ea03a24ac76ed1@email.prolific.co,32,2023-07-20_21h15.18.900,templeton2A_SD_practice,2020.2.10,Win32,60,,,,,,,,,,,,,,,,,,,,,,,0.9084,5.31521293,,,,,,,,,,,,,,,,,,,,,,,,,,,,,,,,,,,,,,,,,,,,,,,,,,,,,,,,,,,,,,,,,,,,,,,,,,,,,,,,,,,,,,,,,,,
,,,,,,,61744ea309ea03a24ac76ed1@email.prolific.co,32,2023-07-20_21h15.18.900,templeton2A_SD_practice,2020.2.10,Win32,60,,,,,,,,,,,,,,,,,,,,,,,0.9251,5.31521293,,,,,,,,,,,,,,,,,,,,,,,,,,,,,,,,,,,,,,,,,,,,,,,,,,,,,,,,,,,,,,,,,,,,,,,,,,,,,,,,,,,,,,,,,,,
,,,,,,,61744ea309ea03a24ac76ed1@email.prolific.co,32,2023-07-20_21h15.18.900,templeton2A_SD_practice,2020.2.10,Win32,60,,,,,,,,,,,,,,,,,,,,,,,0.9418,5.31521293,,,,,,,,,,,,,,,,,,,,,,,,,,,,,,,,,,,,,,,,,,,,,,,,,,,,,,,,,,,,,,,,,,,,,,,,,,,,,,,,,,,,,,,,,,,
,,,,,,,61744ea309ea03a24ac76ed1@email.prolific.co,32,2023-07-20_21h15.18.900,templeton2A_SD_practice,2020.2.10,Win32,60,,,,,,,,,,,,,,,,,,,,,,,0.9584,5.31521293,,,,,,,,,,,,,,,,,,,,,,,,,,,,,,,,,,,,,,,,,,,,,,,,,,,,,,,,,,,,,,,,,,,,,,,,,,,,,,,,,,,,,,,,,,,
,,,,,,,61744ea309ea03a24ac76ed1@email.prolific.co,32,2023-07-20_21h15.18.900,templeton2A_SD_practice,2020.2.10,Win32,60,,,,,,,,,,,,,,,,,,,,,,,0.9748,5.31521293,,,,,,,,,,,,,,,,,,,,,,,,,,,,,,,,,,,,,,,,,,,,,,,,,,,,,,,,,,,,,,,,,,,,,,,,,,,,,,,,,,,,,,,,,,,
,,,,,,,61744ea309ea03a24ac76ed1@email.prolific.co,32,2023-07-20_21h15.18.900,templeton2A_SD_practice,2020.2.10,Win32,60,,,,,,,,,,,,,,,,,,,,,,,0.9914,5.31521293,,,,,,,,,,,,,,,,,,,,,,,,,,,,,,,,,,,,,,,,,,,,,,,,,,,,,,,,,,,,,,,,,,,,,,,,,,,,,,,,,,,,,,,,,,,
,,,,,,,61744ea309ea03a24ac76ed1@email.prolific.co,32,2023-07-20_21h15.18.900,templeton2A_SD_practice,2020.2.10,Win32,60,,,,,,,,,,,,,,,,,,,,,,,1.008,5.31521293,,,,,,,,,,,,,,,,,,,,,,,,,,,,,,,,,,,,,,,,,,,,,,,,,,,,,,,,,,,,,,,,,,,,,,,,,,,,,,,,,,,,,,,,,,,
,,,,,,,61744ea309ea03a24ac76ed1@email.prolific.co,32,2023-07-20_21h15.18.900,templeton2A_SD_practice,2020.2.10,Win32,60,,,,,,,,,,,,,,,,,,,,,,,1.0251,5.31521293,,,,,,,,,,,,,,,,,,,,,,,,,,,,,,,,,,,,,,,,,,,,,,,,,,,,,,,,,,,,,,,,,,,,,,,,,,,,,,,,,,,,,,,,,,,
,,,,,,,61744ea309ea03a24ac76ed1@email.prolific.co,32,2023-07-20_21h15.18.900,templeton2A_SD_practice,2020.2.10,Win32,60,,,,,,,,,,,,,,,,,,,,,,,1.042,5.31521293,,,,,,,,,,,,,,,,,,,,,,,,,,,,,,,,,,,,,,,,,,,,,,,,,,,,,,,,,,,,,,,,,,,,,,,,,,,,,,,,,,,,,,,,,,,
,,,,,,,61744ea309ea03a24ac76ed1@email.prolific.co,32,2023-07-20_21h15.18.900,templeton2A_SD_practice,2020.2.10,Win32,60,,,,,,,,,,,,,,,,,,,,,,,1.0583,5.31521293,,,,,,,,,,,,,,,,,,,,,,,,,,,,,,,,,,,,,,,,,,,,,,,,,,,,,,,,,,,,,,,,,,,,,,,,,,,,,,,,,,,,,,,,,,,
,,,,,,,61744ea309ea03a24ac76ed1@email.prolific.co,32,2023-07-20_21h15.18.900,templeton2A_SD_practice,2020.2.10,Win32,60,,,,,,,,,,,,,,,,,,,,,,,1.0748,5.31521293,,,,,,,,,,,,,,,,,,,,,,,,,,,,,,,,,,,,,,,,,,,,,,,,,,,,,,,,,,,,,,,,,,,,,,,,,,,,,,,,,,,,,,,,,,,
,,,,,,,61744ea309ea03a24ac76ed1@email.prolific.co,32,2023-07-20_21h15.18.900,templeton2A_SD_practice,2020.2.10,Win32,60,,,,,,,,,,,,,,,,,,,,,,,1.0914,5.31521293,,,,,,,,,,,,,,,,,,,,,,,,,,,,,,,,,,,,,,,,,,,,,,,,,,,,,,,,,,,,,,,,,,,,,,,,,,,,,,,,,,,,,,,,,,,
,,,,,,,61744ea309ea03a24ac76ed1@email.prolific.co,32,2023-07-20_21h15.18.900,templeton2A_SD_practice,2020.2.10,Win32,60,,,,,,,,,,,,,,,,,,,,,,,1.1083,5.31521293,,,,,,,,,,,,,,,,,,,,,,,,,,,,,,,,,,,,,,,,,,,,,,,,,,,,,,,,,,,,,,,,,,,,,,,,,,,,,,,,,,,,,,,,,,,
,,,,,,,61744ea309ea03a24ac76ed1@email.prolific.co,32,2023-07-20_21h15.18.900,templeton2A_SD_practice,2020.2.10,Win32,60,,,,,,,,,,,,,,,,,,,,,,,1.1249,5.31521293,,,,,,,,,,,,,,,,,,,,,,,,,,,,,,,,,,,,,,,,,,,,,,,,,,,,,,,,,,,,,,,,,,,,,,,,,,,,,,,,,,,,,,,,,,,
,,,,,,,61744ea309ea03a24ac76ed1@email.prolific.co,32,2023-07-20_21h15.18.900,templeton2A_SD_practice,2020.2.10,Win32,60,,,,,,,,,,,,,,,,,,,,,,,1.1415,5.31521293,,,,,,,,,,,,,,,,,,,,,,,,,,,,,,,,,,,,,,,,,,,,,,,,,,,,,,,,,,,,,,,,,,,,,,,,,,,,,,,,,,,,,,,,,,,
,,,,,,,61744ea309ea03a24ac76ed1@email.prolific.co,32,2023-07-20_21h15.18.900,templeton2A_SD_practice,2020.2.10,Win32,60,,,,,,,,,,,,,,,,,,,,,,,1.1582,5.31521293,,,,,,,,,,,,,,,,,,,,,,,,,,,,,,,,,,,,,,,,,,,,,,,,,,,,,,,,,,,,,,,,,,,,,,,,,,,,,,,,,,,,,,,,,,,
,,,,,,,61744ea309ea03a24ac76ed1@email.prolific.co,32,2023-07-20_21h15.18.900,templeton2A_SD_practice,2020.2.10,Win32,60,,,,,,,,,,,,,,,,,,,,,,,1.1748,5.31521293,,,,,,,,,,,,,,,,,,,,,,,,,,,,,,,,,,,,,,,,,,,,,,,,,,,,,,,,,,,,,,,,,,,,,,,,,,,,,,,,,,,,,,,,,,,
,,,,,,,61744ea309ea03a24ac76ed1@email.prolific.co,32,2023-07-20_21h15.18.900,templeton2A_SD_practice,2020.2.10,Win32,60,,,,,,,,,,,,,,,,,,,,,,,1.1912,5.31521293,,,,,,,,,,,,,,,,,,,,,,,,,,,,,,,,,,,,,,,,,,,,,,,,,,,,,,,,,,,,,,,,,,,,,,,,,,,,,,,,,,,,,,,,,,,
,,,,,,,61744ea309ea03a24ac76ed1@email.prolific.co,32,2023-07-20_21h15.18.900,templeton2A_SD_practice,2020.2.10,Win32,60,,,,,,,,,,,,,,,,,,,,,,,1.2082,5.31521293,,,,,,,,,,,,,,,,,,,,,,,,,,,,,,,,,,,,,,,,,,,,,,,,,,,,,,,,,,,,,,,,,,,,,,,,,,,,,,,,,,,,,,,,,,,
,,,,,,,61744ea309ea03a24ac76ed1@email.prolific.co,32,2023-07-20_21h15.18.900,templeton2A_SD_practice,2020.2.10,Win32,60,,,,,,,,,,,,,,,,,,,,,,,1.2246,5.31521293,,,,,,,,,,,,,,,,,,,,,,,,,,,,,,,,,,,,,,,,,,,,,,,,,,,,,,,,,,,,,,,,,,,,,,,,,,,,,,,,,,,,,,,,,,,
,,,,,,,61744ea309ea03a24ac76ed1@email.prolific.co,32,2023-07-20_21h15.18.900,templeton2A_SD_practice,2020.2.10,Win32,60,,,,,,,,,,,,,,,,,,,,,,,1.2414,5.31521293,,,,,,,,,,,,,,,,,,,,,,,,,,,,,,,,,,,,,,,,,,,,,,,,,,,,,,,,,,,,,,,,,,,,,,,,,,,,,,,,,,,,,,,,,,,
,,,,,,,61744ea309ea03a24ac76ed1@email.prolific.co,32,2023-07-20_21h15.18.900,templeton2A_SD_practice,2020.2.10,Win32,60,,,,,,,,,,,,,,,,,,,,,,,1.2581,5.31521293,,,,,,,,,,,,,,,,,,,,,,,,,,,,,,,,,,,,,,,,,,,,,,,,,,,,,,,,,,,,,,,,,,,,,,,,,,,,,,,,,,,,,,,,,,,
,,,,,,,61744ea309ea03a24ac76ed1@email.prolific.co,32,2023-07-20_21h15.18.900,templeton2A_SD_practice,2020.2.10,Win32,60,,,,,,,,,,,,,,,,,,,,,,,1.2747,5.31521293,,,,,,,,,,,,,,,,,,,,,,,,,,,,,,,,,,,,,,,,,,,,,,,,,,,,,,,,,,,,,,,,,,,,,,,,,,,,,,,,,,,,,,,,,,,
,,,,,,,61744ea309ea03a24ac76ed1@email.prolific.co,32,2023-07-20_21h15.18.900,templeton2A_SD_practice,2020.2.10,Win32,60,,,,,,,,,,,,,,,,,,,,,,,1.2913,5.31521293,,,,,,,,,,,,,,,,,,,,,,,,,,,,,,,,,,,,,,,,,,,,,,,,,,,,,,,,,,,,,,,,,,,,,,,,,,,,,,,,,,,,,,,,,,,
,,,,,,,61744ea309ea03a24ac76ed1@email.prolific.co,32,2023-07-20_21h15.18.900,templeton2A_SD_practice,2020.2.10,Win32,60,,,,,,,,,,,,,,,,,,,,,,,1.3077,5.31521293,,,,,,,,,,,,,,,,,,,,,,,,,,,,,,,,,,,,,,,,,,,,,,,,,,,,,,,,,,,,,,,,,,,,,,,,,,,,,,,,,,,,,,,,,,,
,,,,,,,61744ea309ea03a24ac76ed1@email.prolific.co,32,2023-07-20_21h15.18.900,templeton2A_SD_practice,2020.2.10,Win32,60,,,,,,,,,,,,,,,,,,,,,,,1.3246,5.31521293,,,,,,,,,,,,,,,,,,,,,,,,,,,,,,,,,,,,,,,,,,,,,,,,,,,,,,,,,,,,,,,,,,,,,,,,,,,,,,,,,,,,,,,,,,,
,,,,,,,61744ea309ea03a24ac76ed1@email.prolific.co,32,2023-07-20_21h15.18.900,templeton2A_SD_practice,2020.2.10,Win32,60,,,,,,,,,,,,,,,,,,,,,,,1.341,5.31521293,,,,,,,,,,,,,,,,,,,,,,,,,,,,,,,,,,,,,,,,,,,,,,,,,,,,,,,,,,,,,,,,,,,,,,,,,,,,,,,,,,,,,,,,,,,
,,,,,,,61744ea309ea03a24ac76ed1@email.prolific.co,32,2023-07-20_21h15.18.900,templeton2A_SD_practice,2020.2.10,Win32,60,,,,,,,,,,,,,,,,,,,,,,,1.3579,5.31521293,,,,,,,,,,,,,,,,,,,,,,,,,,,,,,,,,,,,,,,,,,,,,,,,,,,,,,,,,,,,,,,,,,,,,,,,,,,,,,,,,,,,,,,,,,,
,,,,,,,61744ea309ea03a24ac76ed1@email.prolific.co,32,2023-07-20_21h15.18.900,templeton2A_SD_practice,2020.2.10,Win32,60,,,,,,,,,,,,,,,,,,,,,,,1.3747,5.31521293,,,,,,,,,,,,,,,,,,,,,,,,,,,,,,,,,,,,,,,,,,,,,,,,,,,,,,,,,,,,,,,,,,,,,,,,,,,,,,,,,,,,,,,,,,,
,,,,,,,61744ea309ea03a24ac76ed1@email.prolific.co,32,2023-07-20_21h15.18.900,templeton2A_SD_practice,2020.2.10,Win32,60,,,,,,,,,,,,,,,,,,,,,,,1.3912,5.31521293,,,,,,,,,,,,,,,,,,,,,,,,,,,,,,,,,,,,,,,,,,,,,,,,,,,,,,,,,,,,,,,,,,,,,,,,,,,,,,,,,,,,,,,,,,,
,,,,,,,61744ea309ea03a24ac76ed1@email.prolific.co,32,2023-07-20_21h15.18.900,templeton2A_SD_practice,2020.2.10,Win32,60,,,,,,,,,,,,,,,,,,,,,,,1.408,5.31521293,,,,,,,,,,,,,,,,,,,,,,,,,,,,,,,,,,,,,,,,,,,,,,,,,,,,,,,,,,,,,,,,,,,,,,,,,,,,,,,,,,,,,,,,,,,
,,,,,,,61744ea309ea03a24ac76ed1@email.prolific.co,32,2023-07-20_21h15.18.900,templeton2A_SD_practice,2020.2.10,Win32,60,,,,,,,,,,,,,,,,,,,,,,,1.4244,5.31521293,,,,,,,,,,,,,,,,,,,,,,,,,,,,,,,,,,,,,,,,,,,,,,,,,,,,,,,,,,,,,,,,,,,,,,,,,,,,,,,,,,,,,,,,,,,
,,,,,,,61744ea309ea03a24ac76ed1@email.prolific.co,32,2023-07-20_21h15.18.900,templeton2A_SD_practice,2020.2.10,Win32,60,,,,,,,,,,,,,,,,,,,,,,,1.4412,5.31521293,,,,,,,,,,,,,,,,,,,,,,,,,,,,,,,,,,,,,,,,,,,,,,,,,,,,,,,,,,,,,,,,,,,,,,,,,,,,,,,,,,,,,,,,,,,
,,,,,,,61744ea309ea03a24ac76ed1@email.prolific.co,32,2023-07-20_21h15.18.900,templeton2A_SD_practice,2020.2.10,Win32,60,,,,,,,,,,,,,,,,,,,,,,,1.4579,5.31521293,,,,,,,,,,,,,,,,,,,,,,,,,,,,,,,,,,,,,,,,,,,,,,,,,,,,,,,,,,,,,,,,,,,,,,,,,,,,,,,,,,,,,,,,,,,
,,,,,,,61744ea309ea03a24ac76ed1@email.prolific.co,32,2023-07-20_21h15.18.900,templeton2A_SD_practice,2020.2.10,Win32,60,,,,,,,,,,,,,,,,,,,,,,,1.4745,5.31521293,,,,,,,,,,,,,,,,,,,,,,,,,,,,,,,,,,,,,,,,,,,,,,,,,,,,,,,,,,,,,,,,,,,,,,,,,,,,,,,,,,,,,,,,,,,
,,,,,,,61744ea309ea03a24ac76ed1@email.prolific.co,32,2023-07-20_21h15.18.900,templeton2A_SD_practice,2020.2.10,Win32,60,,,,,,,,,,,,,,,,,,,,,,,1.491,5.31521293,,,,,,,,,,,,,,,,,,,,,,,,,,,,,,,,,,,,,,,,,,,,,,,,,,,,,,,,,,,,,,,,,,,,,,,,,,,,,,,,,,,,,,,,,,,
,,,,,,,61744ea309ea03a24ac76ed1@email.prolific.co,32,2023-07-20_21h15.18.900,templeton2A_SD_practice,2020.2.10,Win32,60,,,,,,,,,,,,,,,,,,,,,,,1.5078,5.31521293,,,,,,,,,,,,,,,,,,,,,,,,,,,,,,,,,,,,,,,,,,,,,,,,,,,,,,,,,,,,,,,,,,,,,,,,,,,,,,,,,,,,,,,,,,,
,,,,,,,61744ea309ea03a24ac76ed1@email.prolific.co,32,2023-07-20_21h15.18.900,templeton2A_SD_practice,2020.2.10,Win32,60,,,,,,,,,,,,,,,,,,,,,,,1.5245,5.31521293,,,,,,,,,,,,,,,,,,,,,,,,,,,,,,,,,,,,,,,,,,,,,,,,,,,,,,,,,,,,,,,,,,,,,,,,,,,,,,,,,,,,,,,,,,,
,,,,,,,61744ea309ea03a24ac76ed1@email.prolific.co,32,2023-07-20_21h15.18.900,templeton2A_SD_practice,2020.2.10,Win32,60,,,,,,,,,,,,,,,,,,,,,,,1.5411,5.31521293,,,,,,,,,,,,,,,,,,,,,,,,,,,,,,,,,,,,,,,,,,,,,,,,,,,,,,,,,,,,,,,,,,,,,,,,,,,,,,,,,,,,,,,,,,,
,,,,,,,61744ea309ea03a24ac76ed1@email.prolific.co,32,2023-07-20_21h15.18.900,templeton2A_SD_practice,2020.2.10,Win32,60,,,,,,,,,,,,,,,,,,,,,,,1.5578,5.31521293,,,,,,,,,,,,,,,,,,,,,,,,,,,,,,,,,,,,,,,,,,,,,,,,,,,,,,,,,,,,,,,,,,,,,,,,,,,,,,,,,,,,,,,,,,,
,,,,,,,61744ea309ea03a24ac76ed1@email.prolific.co,32,2023-07-20_21h15.18.900,templeton2A_SD_practice,2020.2.10,Win32,60,,,,,,,,,,,,,,,,,,,,,,,1.5744,5.31521293,,,,,,,,,,,,,,,,,,,,,,,,,,,,,,,,,,,,,,,,,,,,,,,,,,,,,,,,,,,,,,,,,,,,,,,,,,,,,,,,,,,,,,,,,,,
,,,,,,,61744ea309ea03a24ac76ed1@email.prolific.co,32,2023-07-20_21h15.18.900,templeton2A_SD_practice,2020.2.10,Win32,60,,,,,,,,,,,,,,,,,,,,,,,1.5911,5.31521293,,,,,,,,,,,,,,,,,,,,,,,,,,,,,,,,,,,,,,,,,,,,,,,,,,,,,,,,,,,,,,,,,,,,,,,,,,,,,,,,,,,,,,,,,,,
,,,,,,,61744ea309ea03a24ac76ed1@email.prolific.co,32,2023-07-20_21h15.18.900,templeton2A_SD_practice,2020.2.10,Win32,60,,,,,,,,,,,,,,,,,,,,,,,1.6077,5.31521293,,,,,,,,,,,,,,,,,,,,,,,,,,,,,,,,,,,,,,,,,,,,,,,,,,,,,,,,,,,,,,,,,,,,,,,,,,,,,,,,,,,,,,,,,,,
,,,,,,,61744ea309ea03a24ac76ed1@email.prolific.co,32,2023-07-20_21h15.18.900,templeton2A_SD_practice,2020.2.10,Win32,60,,,,,,,,,,,,,,,,,,,,,,,1.6244,5.31521293,,,,,,,,,,,,,,,,,,,,,,,,,,,,,,,,,,,,,,,,,,,,,,,,,,,,,,,,,,,,,,,,,,,,,,,,,,,,,,,,,,,,,,,,,,,
,,,,,,,61744ea309ea03a24ac76ed1@email.prolific.co,32,2023-07-20_21h15.18.900,templeton2A_SD_practice,2020.2.10,Win32,60,,,,,,,,,,,,,,,,,,,,,,,1.6409,5.31521293,,,,,,,,,,,,,,,,,,,,,,,,,,,,,,,,,,,,,,,,,,,,,,,,,,,,,,,,,,,,,,,,,,,,,,,,,,,,,,,,,,,,,,,,,,,
,,,,,,,61744ea309ea03a24ac76ed1@email.prolific.co,32,2023-07-20_21h15.18.900,templeton2A_SD_practice,2020.2.10,Win32,60,,,,,,,,,,,,,,,,,,,,,,,1.6577,5.31521293,,,,,,,,,,,,,,,,,,,,,,,,,,,,,,,,,,,,,,,,,,,,,,,,,,,,,,,,,,,,,,,,,,,,,,,,,,,,,,,,,,,,,,,,,,,
,,,,,,,61744ea309ea03a24ac76ed1@email.prolific.co,32,2023-07-20_21h15.18.900,templeton2A_SD_practice,2020.2.10,Win32,60,,,,,,,,,,,,,,,,,,,,,,,1.674,5.31521293,,,,,,,,,,,,,,,,,,,,,,,,,,,,,,,,,,,,,,,,,,,,,,,,,,,,,,,,,,,,,,,,,,,,,,,,,,,,,,,,,,,,,,,,,,,
,,,,,,,61744ea309ea03a24ac76ed1@email.prolific.co,32,2023-07-20_21h15.18.900,templeton2A_SD_practice,2020.2.10,Win32,60,,,,,,,,,,,,,,,,,,,,,,,1.691,5.31521293,,,,,,,,,,,,,,,,,,,,,,,,,,,,,,,,,,,,,,,,,,,,,,,,,,,,,,,,,,,,,,,,,,,,,,,,,,,,,,,,,,,,,,,,,,,
,,,,,,,61744ea309ea03a24ac76ed1@email.prolific.co,32,2023-07-20_21h15.18.900,templeton2A_SD_practice,2020.2.10,Win32,60,,,,,,,,,,,,,,,,,,,,,,,1.7075,5.31521293,,,,,,,,,,,,,,,,,,,,,,,,,,,,,,,,,,,,,,,,,,,,,,,,,,,,,,,,,,,,,,,,,,,,,,,,,,,,,,,,,,,,,,,,,,,
,,,,,,,61744ea309ea03a24ac76ed1@email.prolific.co,32,2023-07-20_21h15.18.900,templeton2A_SD_practice,2020.2.10,Win32,60,,,,,,,,,,,,,,,,,,,,,,,1.7243,5.31521293,,,,,,,,,,,,,,,,,,,,,,,,,,,,,,,,,,,,,,,,,,,,,,,,,,,,,,,,,,,,,,,,,,,,,,,,,,,,,,,,,,,,,,,,,,,
,,,,,,,61744ea309ea03a24ac76ed1@email.prolific.co,32,2023-07-20_21h15.18.900,templeton2A_SD_practice,2020.2.10,Win32,60,,,,,,,,,,,,,,,,,,,,,,,1.7409,5.31521293,,,,,,,,,,,,,,,,,,,,,,,,,,,,,,,,,,,,,,,,,,,,,,,,,,,,,,,,,,,,,,,,,,,,,,,,,,,,,,,,,,,,,,,,,,,
,,,,,,,61744ea309ea03a24ac76ed1@email.prolific.co,32,2023-07-20_21h15.18.900,templeton2A_SD_practice,2020.2.10,Win32,60,,,,,,,,,,,,,,,,,,,,,,,1.7576,5.31521293,,,,,,,,,,,,,,,,,,,,,,,,,,,,,,,,,,,,,,,,,,,,,,,,,,,,,,,,,,,,,,,,,,,,,,,,,,,,,,,,,,,,,,,,,,,
,,,,,,,61744ea309ea03a24ac76ed1@email.prolific.co,32,2023-07-20_21h15.18.900,templeton2A_SD_practice,2020.2.10,Win32,60,,,,,,,,,,,,,,,,,,,,,,,1.7743,5.31521293,,,,,,,,,,,,,,,,,,,,,,,,,,,,,,,,,,,,,,,,,,,,,,,,,,,,,,,,,,,,,,,,,,,,,,,,,,,,,,,,,,,,,,,,,,,
,,,,,,,61744ea309ea03a24ac76ed1@email.prolific.co,32,2023-07-20_21h15.18.900,templeton2A_SD_practice,2020.2.10,Win32,60,,,,,,,,,,,,,,,,,,,,,,,1.7916,5.31521293,,,,,,,,,,,,,,,,,,,,,,,,,,,,,,,,,,,,,,,,,,,,,,,,,,,,,,,,,,,,,,,,,,,,,,,,,,,,,,,,,,,,,,,,,,,
,,,,,,,61744ea309ea03a24ac76ed1@email.prolific.co,32,2023-07-20_21h15.18.900,templeton2A_SD_practice,2020.2.10,Win32,60,,,,,,,,,,,,,,,,,,,,,,,1.8082,5.31521293,,,,,,,,,,,,,,,,,,,,,,,,,,,,,,,,,,,,,,,,,,,,,,,,,,,,,,,,,,,,,,,,,,,,,,,,,,,,,,,,,,,,,,,,,,,
,,,,,,,61744ea309ea03a24ac76ed1@email.prolific.co,32,2023-07-20_21h15.18.900,templeton2A_SD_practice,2020.2.10,Win32,60,,,,,,,,,,,,,,,,,,,,,,,1.8241,5.31521293,,,,,,,,,,,,,,,,,,,,,,,,,,,,,,,,,,,,,,,,,,,,,,,,,,,,,,,,,,,,,,,,,,,,,,,,,,,,,,,,,,,,,,,,,,,
,,,,,,,61744ea309ea03a24ac76ed1@email.prolific.co,32,2023-07-20_21h15.18.900,templeton2A_SD_practice,2020.2.10,Win32,60,,,,,,,,,,,,,,,,,,,,,,,1.8409,5.31521293,,,,,,,,,,,,,,,,,,,,,,,,,,,,,,,,,,,,,,,,,,,,,,,,,,,,,,,,,,,,,,,,,,,,,,,,,,,,,,,,,,,,,,,,,,,
,,,,,,,61744ea309ea03a24ac76ed1@email.prolific.co,32,2023-07-20_21h15.18.900,templeton2A_SD_practice,2020.2.10,Win32,60,,,,,,,,,,,,,,,,,,,,,,,1.8575,5.31521293,,,,,,,,,,,,,,,,,,,,,,,,,,,,,,,,,,,,,,,,,,,,,,,,,,,,,,,,,,,,,,,,,,,,,,,,,,,,,,,,,,,,,,,,,,,
,,,,,,,61744ea309ea03a24ac76ed1@email.prolific.co,32,2023-07-20_21h15.18.900,templeton2A_SD_practice,2020.2.10,Win32,60,,,,,,,,,,,,,,,,,,,,,,,1.8742,5.31521293,,,,,,,,,,,,,,,,,,,,,,,,,,,,,,,,,,,,,,,,,,,,,,,,,,,,,,,,,,,,,,,,,,,,,,,,,,,,,,,,,,,,,,,,,,,
,,,,,,,61744ea309ea03a24ac76ed1@email.prolific.co,32,2023-07-20_21h15.18.900,templeton2A_SD_practice,2020.2.10,Win32,60,,,,,,,,,,,,,,,,,,,,,,,1.8912,5.31521293,,,,,,,,,,,,,,,,,,,,,,,,,,,,,,,,,,,,,,,,,,,,,,,,,,,,,,,,,,,,,,,,,,,,,,,,,,,,,,,,,,,,,,,,,,,
,,,,,,,61744ea309ea03a24ac76ed1@email.prolific.co,32,2023-07-20_21h15.18.900,templeton2A_SD_practice,2020.2.10,Win32,60,,,,,,,,,,,,,,,,,,,,,,,1.9071,5.31521293,,,,,,,,,,,,,,,,,,,,,,,,,,,,,,,,,,,,,,,,,,,,,,,,,,,,,,,,,,,,,,,,,,,,,,,,,,,,,,,,,,,,,,,,,,,
,,,,,,,61744ea309ea03a24ac76ed1@email.prolific.co,32,2023-07-20_21h15.18.900,templeton2A_SD_practice,2020.2.10,Win32,60,,,,,,,,,,,,,,,,,,,,,,,1.9241,5.31521293,,,,,,,,,,,,,,,,,,,,,,,,,,,,,,,,,,,,,,,,,,,,,,,,,,,,,,,,,,,,,,,,,,,,,,,,,,,,,,,,,,,,,,,,,,,
,,,,,,,61744ea309ea03a24ac76ed1@email.prolific.co,32,2023-07-20_21h15.18.900,templeton2A_SD_practice,2020.2.10,Win32,60,,,,,,,,,,,,,,,,,,,,,,,1.9407,5.31521293,,,,,,,,,,,,,,,,,,,,,,,,,,,,,,,,,,,,,,,,,,,,,,,,,,,,,,,,,,,,,,,,,,,,,,,,,,,,,,,,,,,,,,,,,,,
,,,,,,,61744ea309ea03a24ac76ed1@email.prolific.co,32,2023-07-20_21h15.18.900,templeton2A_SD_practice,2020.2.10,Win32,60,,,,,,,,,,,,,,,,,,,,,,,1.9575,5.31521293,,,,,,,,,,,,,,,,,,,,,,,,,,,,,,,,,,,,,,,,,,,,,,,,,,,,,,,,,,,,,,,,,,,,,,,,,,,,,,,,,,,,,,,,,,,
,,,,,,,61744ea309ea03a24ac76ed1@email.prolific.co,32,2023-07-20_21h15.18.900,templeton2A_SD_practice,2020.2.10,Win32,60,,,,,,,,,,,,,,,,,,,,,,,1.9741,5.31521293,,,,,,,,,,,,,,,,,,,,,,,,,,,,,,,,,,,,,,,,,,,,,,,,,,,,,,,,,,,,,,,,,,,,,,,,,,,,,,,,,,,,,,,,,,,
,,,,,,,61744ea309ea03a24ac76ed1@email.prolific.co,32,2023-07-20_21h15.18.900,templeton2A_SD_practice,2020.2.10,Win32,60,,,,,,,,,,,,,,,,,,,,,,,1.9906,5.31521293,,,,,,,,,,,,,,,,,,,,,,,,,,,,,,,,,,,,,,,,,,,,,,,,,,,,,,,,,,,,,,,,,,,,,,,,,,,,,,,,,,,,,,,,,,,
,,,,,,,61744ea309ea03a24ac76ed1@email.prolific.co,32,2023-07-20_21h15.18.900,templeton2A_SD_practice,2020.2.10,Win32,60,,,,,,,,,,,,,,,,,,,,,,,2.007,5.31521293,,,,,,,,,,,,,,,,,,,,,,,,,,,,,,,,,,,,,,,,,,,,,,,,,,,,,,,,,,,,,,,,,,,,,,,,,,,,,,,,,,,,,,,,,,,
,,,,,,,61744ea309ea03a24ac76ed1@email.prolific.co,32,2023-07-20_21h15.18.900,templeton2A_SD_practice,2020.2.10,Win32,60,,,,,,,,,,,,,,,,,,,,,,,2.0237,5.31521293,,,,,,,,,,,,,,,,,,,,,,,,,,,,,,,,,,,,,,,,,,,,,,,,,,,,,,,,,,,,,,,,,,,,,,,,,,,,,,,,,,,,,,,,,,,
,,,,,,,61744ea309ea03a24ac76ed1@email.prolific.co,32,2023-07-20_21h15.18.900,templeton2A_SD_practice,2020.2.10,Win32,60,,,,,,,,,,,,,,,,,,,,,,,2.0407,5.31521293,,,,,,,,,,,,,,,,,,,,,,,,,,,,,,,,,,,,,,,,,,,,,,,,,,,,,,,,,,,,,,,,,,,,,,,,,,,,,,,,,,,,,,,,,,,
,,,,,,,61744ea309ea03a24ac76ed1@email.prolific.co,32,2023-07-20_21h15.18.900,templeton2A_SD_practice,2020.2.10,Win32,60,,,,,,,,,,,,,,,,,,,,,,,2.0572,5.31521293,,,,,,,,,,,,,,,,,,,,,,,,,,,,,,,,,,,,,,,,,,,,,,,,,,,,,,,,,,,,,,,,,,,,,,,,,,,,,,,,,,,,,,,,,,,
,,,,,,,61744ea309ea03a24ac76ed1@email.prolific.co,32,2023-07-20_21h15.18.900,templeton2A_SD_practice,2020.2.10,Win32,60,,,,,,,,,,,,,,,,,,,,,,,2.0739,5.31521293,,,,,,,,,,,,,,,,,,,,,,,,,,,,,,,,,,,,,,,,,,,,,,,,,,,,,,,,,,,,,,,,,,,,,,,,,,,,,,,,,,,,,,,,,,,
,,,,,,,61744ea309ea03a24ac76ed1@email.prolific.co,32,2023-07-20_21h15.18.900,templeton2A_SD_practice,2020.2.10,Win32,60,,,,,,,,,,,,,,,,,,,,,,,2.0906,5.31521293,,,,,,,,,,,,,,,,,,,,,,,,,,,,,,,,,,,,,,,,,,,,,,,,,,,,,,,,,,,,,,,,,,,,,,,,,,,,,,,,,,,,,,,,,,,
,,,,,,,61744ea309ea03a24ac76ed1@email.prolific.co,32,2023-07-20_21h15.18.900,templeton2A_SD_practice,2020.2.10,Win32,60,,,,,,,,,,,,,,,,,,,,,,,2.1074,5.31521293,,,,,,,,,,,,,,,,,,,,,,,,,,,,,,,,,,,,,,,,,,,,,,,,,,,,,,,,,,,,,,,,,,,,,,,,,,,,,,,,,,,,,,,,,,,
,,,,,,,61744ea309ea03a24ac76ed1@email.prolific.co,32,2023-07-20_21h15.18.900,templeton2A_SD_practice,2020.2.10,Win32,60,,,,,,,,,,,,,,,,,,,,,,,2.1239,5.31521293,,,,,,,,,,,,,,,,,,,,,,,,,,,,,,,,,,,,,,,,,,,,,,,,,,,,,,,,,,,,,,,,,,,,,,,,,,,,,,,,,,,,,,,,,,,
,,,,,,,61744ea309ea03a24ac76ed1@email.prolific.co,32,2023-07-20_21h15.18.900,templeton2A_SD_practice,2020.2.10,Win32,60,,,,,,,,,,,,,,,,,,,,,,,2.1406,5.31521293,,,,,,,,,,,,,,,,,,,,,,,,,,,,,,,,,,,,,,,,,,,,,,,,,,,,,,,,,,,,,,,,,,,,,,,,,,,,,,,,,,,,,,,,,,,
,,,,,,,61744ea309ea03a24ac76ed1@email.prolific.co,32,2023-07-20_21h15.18.900,templeton2A_SD_practice,2020.2.10,Win32,60,,,,,,,,,,,,,,,,,,,,,,,2.1572,5.31521293,,,,,,,,,,,,,,,,,,,,,,,,,,,,,,,,,,,,,,,,,,,,,,,,,,,,,,,,,,,,,,,,,,,,,,,,,,,,,,,,,,,,,,,,,,,
,,,,,,,61744ea309ea03a24ac76ed1@email.prolific.co,32,2023-07-20_21h15.18.900,templeton2A_SD_practice,2020.2.10,Win32,60,,,,,,,,,,,,,,,,,,,,,,,2.1732,5.31521293,,,,,,,,,,,,,,,,,,,,,,,,,,,,,,,,,,,,,,,,,,,,,,,,,,,,,,,,,,,,,,,,,,,,,,,,,,,,,,,,,,,,,,,,,,,
,,,,,,,61744ea309ea03a24ac76ed1@email.prolific.co,32,2023-07-20_21h15.18.900,templeton2A_SD_practice,2020.2.10,Win32,60,,,,,,,,,,,,,,,,,,,,,,,2.1902,5.31521293,,,,,,,,,,,,,,,,,,,,,,,,,,,,,,,,,,,,,,,,,,,,,,,,,,,,,,,,,,,,,,,,,,,,,,,,,,,,,,,,,,,,,,,,,,,
,,,,,,,61744ea309ea03a24ac76ed1@email.prolific.co,32,2023-07-20_21h15.18.900,templeton2A_SD_practice,2020.2.10,Win32,60,,,,,,,,,,,,,,,,,,,,,,,2.2071,5.31521293,,,,,,,,,,,,,,,,,,,,,,,,,,,,,,,,,,,,,,,,,,,,,,,,,,,,,,,,,,,,,,,,,,,,,,,,,,,,,,,,,,,,,,,,,,,
,,,,,,,61744ea309ea03a24ac76ed1@email.prolific.co,32,2023-07-20_21h15.18.900,templeton2A_SD_practice,2020.2.10,Win32,60,,,,,,,,,,,,,,,,,,,,,,,2.2238,5.31521293,,,,,,,,,,,,,,,,,,,,,,,,,,,,,,,,,,,,,,,,,,,,,,,,,,,,,,,,,,,,,,,,,,,,,,,,,,,,,,,,,,,,,,,,,,,
,,,,,,,61744ea309ea03a24ac76ed1@email.prolific.co,32,2023-07-20_21h15.18.900,templeton2A_SD_practice,2020.2.10,Win32,60,,,,,,,,,,,,,,,,,,,,,,,2.2402,5.31521293,,,,,,,,,,,,,,,,,,,,,,,,,,,,,,,,,,,,,,,,,,,,,,,,,,,,,,,,,,,,,,,,,,,,,,,,,,,,,,,,,,,,,,,,,,,
,,,,,,,61744ea309ea03a24ac76ed1@email.prolific.co,32,2023-07-20_21h15.18.900,templeton2A_SD_practice,2020.2.10,Win32,60,,,,,,,,,,,,,,,,,,,,,,,2.257,5.31521293,,,,,,,,,,,,,,,,,,,,,,,,,,,,,,,,,,,,,,,,,,,,,,,,,,,,,,,,,,,,,,,,,,,,,,,,,,,,,,,,,,,,,,,,,,,
,,,,,,,61744ea309ea03a24ac76ed1@email.prolific.co,32,2023-07-20_21h15.18.900,templeton2A_SD_practice,2020.2.10,Win32,60,,,,,,,,,,,,,,,,,,,,,,,2.2735,5.31521293,,,,,,,,,,,,,,,,,,,,,,,,,,,,,,,,,,,,,,,,,,,,,,,,,,,,,,,,,,,,,,,,,,,,,,,,,,,,,,,,,,,,,,,,,,,
,,,,,,,61744ea309ea03a24ac76ed1@email.prolific.co,32,2023-07-20_21h15.18.900,templeton2A_SD_practice,2020.2.10,Win32,60,,,,,,,,,,,,,,,,,,,,,,,2.2904,5.31521293,,,,,,,,,,,,,,,,,,,,,,,,,,,,,,,,,,,,,,,,,,,,,,,,,,,,,,,,,,,,,,,,,,,,,,,,,,,,,,,,,,,,,,,,,,,
,,,,,,,61744ea309ea03a24ac76ed1@email.prolific.co,32,2023-07-20_21h15.18.900,templeton2A_SD_practice,2020.2.10,Win32,60,,,,,,,,,,,,,,,,,,,,,,,2.3069,5.31521293,,,,,,,,,,,,,,,,,,,,,,,,,,,,,,,,,,,,,,,,,,,,,,,,,,,,,,,,,,,,,,,,,,,,,,,,,,,,,,,,,,,,,,,,,,,
,,,,,,,61744ea309ea03a24ac76ed1@email.prolific.co,32,2023-07-20_21h15.18.900,templeton2A_SD_practice,2020.2.10,Win32,60,,,,,,,,,,,,,,,,,,,,,,,2.3237,5.31521293,,,,,,,,,,,,,,,,,,,,,,,,,,,,,,,,,,,,,,,,,,,,,,,,,,,,,,,,,,,,,,,,,,,,,,,,,,,,,,,,,,,,,,,,,,,
,,,,,,,61744ea309ea03a24ac76ed1@email.prolific.co,32,2023-07-20_21h15.18.900,templeton2A_SD_practice,2020.2.10,Win32,60,,,,,,,,,,,,,,,,,,,,,,,2.3401,5.31521293,,,,,,,,,,,,,,,,,,,,,,,,,,,,,,,,,,,,,,,,,,,,,,,,,,,,,,,,,,,,,,,,,,,,,,,,,,,,,,,,,,,,,,,,,,,
,,,,,,,61744ea309ea03a24ac76ed1@email.prolific.co,32,2023-07-20_21h15.18.900,templeton2A_SD_practice,2020.2.10,Win32,60,,,,,,,,,,,,,,,,,,,,,,,2.3567,5.31521293,,,,,,,,,,,,,,,,,,,,,,,,,,,,,,,,,,,,,,,,,,,,,,,,,,,,,,,,,,,,,,,,,,,,,,,,,,,,,,,,,,,,,,,,,,,
,,,,,,,61744ea309ea03a24ac76ed1@email.prolific.co,32,2023-07-20_21h15.18.900,templeton2A_SD_practice,2020.2.10,Win32,60,,,,,,,,,,,,,,,,,,,,,,,2.3738,5.31521293,,,,,,,,,,,,,,,,,,,,,,,,,,,,,,,,,,,,,,,,,,,,,,,,,,,,,,,,,,,,,,,,,,,,,,,,,,,,,,,,,,,,,,,,,,,
,,,,,,,61744ea309ea03a24ac76ed1@email.prolific.co,32,2023-07-20_21h15.18.900,templeton2A_SD_practice,2020.2.10,Win32,60,,,,,,,,,,,,,,,,,,,,,,,2.3904,5.31521293,,,,,,,,,,,,,,,,,,,,,,,,,,,,,,,,,,,,,,,,,,,,,,,,,,,,,,,,,,,,,,,,,,,,,,,,,,,,,,,,,,,,,,,,,,,
,,,,,,,61744ea309ea03a24ac76ed1@email.prolific.co,32,2023-07-20_21h15.18.900,templeton2A_SD_practice,2020.2.10,Win32,60,,,,,,,,,,,,,,,,,,,,,,,2.407,5.31521293,,,,,,,,,,,,,,,,,,,,,,,,,,,,,,,,,,,,,,,,,,,,,,,,,,,,,,,,,,,,,,,,,,,,,,,,,,,,,,,,,,,,,,,,,,,
,,,,,,,61744ea309ea03a24ac76ed1@email.prolific.co,32,2023-07-20_21h15.18.900,templeton2A_SD_practice,2020.2.10,Win32,60,,,,,,,,,,,,,,,,,,,,,,,2.4238,5.31521293,,,,,,,,,,,,,,,,,,,,,,,,,,,,,,,,,,,,,,,,,,,,,,,,,,,,,,,,,,,,,,,,,,,,,,,,,,,,,,,,,,,,,,,,,,,
,,,,,,,61744ea309ea03a24ac76ed1@email.prolific.co,32,2023-07-20_21h15.18.900,templeton2A_SD_practice,2020.2.10,Win32,60,,,,,,,,,,,,,,,,,,,,,,,2.4403,5.31521293,,,,,,,,,,,,,,,,,,,,,,,,,,,,,,,,,,,,,,,,,,,,,,,,,,,,,,,,,,,,,,,,,,,,,,,,,,,,,,,,,,,,,,,,,,,
,,,,,,,61744ea309ea03a24ac76ed1@email.prolific.co,32,2023-07-20_21h15.18.900,templeton2A_SD_practice,2020.2.10,Win32,60,,,,,,,,,,,,,,,,,,,,,,,2.4569,5.31521293,,,,,,,,,,,,,,,,,,,,,,,,,,,,,,,,,,,,,,,,,,,,,,,,,,,,,,,,,,,,,,,,,,,,,,,,,,,,,,,,,,,,,,,,,,,
,,,,,,,61744ea309ea03a24ac76ed1@email.prolific.co,32,2023-07-20_21h15.18.900,templeton2A_SD_practice,2020.2.10,Win32,60,,,,,,,,,,,,,,,,,,,,,,,2.4736,5.31521293,,,,,,,,,,,,,,,,,,,,,,,,,,,,,,,,,,,,,,,,,,,,,,,,,,,,,,,,,,,,,,,,,,,,,,,,,,,,,,,,,,,,,,,,,,,
,,,,,,,61744ea309ea03a24ac76ed1@email.prolific.co,32,2023-07-20_21h15.18.900,templeton2A_SD_practice,2020.2.10,Win32,60,,,,,,,,,,,,,,,,,,,,,,,2.4903,5.31521293,,,,,,,,,,,,,,,,,,,,,,,,,,,,,,,,,,,,,,,,,,,,,,,,,,,,,,,,,,,,,,,,,,,,,,,,,,,,,,,,,,,,,,,,,,,
,,,,,,,61744ea309ea03a24ac76ed1@email.prolific.co,32,2023-07-20_21h15.18.900,templeton2A_SD_practice,2020.2.10,Win32,60,,,,,,,,,,,,,,,,,,,,,,,2.5069,5.31521293,,,,,,,,,,,,,,,,,,,,,,,,,,,,,,,,,,,,,,,,,,,,,,,,,,,,,,,,,,,,,,,,,,,,,,,,,,,,,,,,,,,,,,,,,,,
,,,,,,,61744ea309ea03a24ac76ed1@email.prolific.co,32,2023-07-20_21h15.18.900,templeton2A_SD_practice,2020.2.10,Win32,60,,,,,,,,,,,,,,,,,,,,,,,2.5235,5.31521293,,,,,,,,,,,,,,,,,,,,,,,,,,,,,,,,,,,,,,,,,,,,,,,,,,,,,,,,,,,,,,,,,,,,,,,,,,,,,,,,,,,,,,,,,,,
,,,,,,,61744ea309ea03a24ac76ed1@email.prolific.co,32,2023-07-20_21h15.18.900,templeton2A_SD_practice,2020.2.10,Win32,60,,,,,,,,,,,,,,,,,,,,,,,2.5402,5.31521293,,,,,,,,,,,,,,,,,,,,,,,,,,,,,,,,,,,,,,,,,,,,,,,,,,,,,,,,,,,,,,,,,,,,,,,,,,,,,,,,,,,,,,,,,,,
,,,,,,,61744ea309ea03a24ac76ed1@email.prolific.co,32,2023-07-20_21h15.18.900,templeton2A_SD_practice,2020.2.10,Win32,60,,,,,,,,,,,,,,,,,,,,,,,2.5565,5.31521293,,,,,,,,,,,,,,,,,,,,,,,,,,,,,,,,,,,,,,,,,,,,,,,,,,,,,,,,,,,,,,,,,,,,,,,,,,,,,,,,,,,,,,,,,,,
,,,,,,,61744ea309ea03a24ac76ed1@email.prolific.co,32,2023-07-20_21h15.18.900,templeton2A_SD_practice,2020.2.10,Win32,60,,,,,,,,,,,,,,,,,,,,,,,2.5735,5.31521293,,,,,,,,,,,,,,,,,,,,,,,,,,,,,,,,,,,,,,,,,,,,,,,,,,,,,,,,,,,,,,,,,,,,,,,,,,,,,,,,,,,,,,,,,,,
,,,,,,,61744ea309ea03a24ac76ed1@email.prolific.co,32,2023-07-20_21h15.18.900,templeton2A_SD_practice,2020.2.10,Win32,60,,,,,,,,,,,,,,,,,,,,,,,2.5898,5.31521293,,,,,,,,,,,,,,,,,,,,,,,,,,,,,,,,,,,,,,,,,,,,,,,,,,,,,,,,,,,,,,,,,,,,,,,,,,,,,,,,,,,,,,,,,,,
,,,,,,,61744ea309ea03a24ac76ed1@email.prolific.co,32,2023-07-20_21h15.18.900,templeton2A_SD_practice,2020.2.10,Win32,60,,,,,,,,,,,,,,,,,,,,,,,2.6067,5.31521293,,,,,,,,,,,,,,,,,,,,,,,,,,,,,,,,,,,,,,,,,,,,,,,,,,,,,,,,,,,,,,,,,,,,,,,,,,,,,,,,,,,,,,,,,,,
,,,,,,,61744ea309ea03a24ac76ed1@email.prolific.co,32,2023-07-20_21h15.18.900,templeton2A_SD_practice,2020.2.10,Win32,60,,,,,,,,,,,,,,,,,,,,,,,2.6234,5.31521293,,,,,,,,,,,,,,,,,,,,,,,,,,,,,,,,,,,,,,,,,,,,,,,,,,,,,,,,,,,,,,,,,,,,,,,,,,,,,,,,,,,,,,,,,,,
,,,,,,,61744ea309ea03a24ac76ed1@email.prolific.co,32,2023-07-20_21h15.18.900,templeton2A_SD_practice,2020.2.10,Win32,60,,,,,,,,,,,,,,,,,,,,,,,2.6399,5.31521293,,,,,,,,,,,,,,,,,,,,,,,,,,,,,,,,,,,,,,,,,,,,,,,,,,,,,,,,,,,,,,,,,,,,,,,,,,,,,,,,,,,,,,,,,,,
,,,,,,,61744ea309ea03a24ac76ed1@email.prolific.co,32,2023-07-20_21h15.18.900,templeton2A_SD_practice,2020.2.10,Win32,60,,,,,,,,,,,,,,,,,,,,,,,2.6567,5.31521293,,,,,,,,,,,,,,,,,,,,,,,,,,,,,,,,,,,,,,,,,,,,,,,,,,,,,,,,,,,,,,,,,,,,,,,,,,,,,,,,,,,,,,,,,,,
,,,,,,,61744ea309ea03a24ac76ed1@email.prolific.co,32,2023-07-20_21h15.18.900,templeton2A_SD_practice,2020.2.10,Win32,60,,,,,,,,,,,,,,,,,,,,,,,2.673,5.31521293,,,,,,,,,,,,,,,,,,,,,,,,,,,,,,,,,,,,,,,,,,,,,,,,,,,,,,,,,,,,,,,,,,,,,,,,,,,,,,,,,,,,,,,,,,,
,,,,,,,61744ea309ea03a24ac76ed1@email.prolific.co,32,2023-07-20_21h15.18.900,templeton2A_SD_practice,2020.2.10,Win32,60,,,,,,,,,,,,,,,,,,,,,,,2.6898,5.31521293,,,,,,,,,,,,,,,,,,,,,,,,,,,,,,,,,,,,,,,,,,,,,,,,,,,,,,,,,,,,,,,,,,,,,,,,,,,,,,,,,,,,,,,,,,,
,,,,,,,61744ea309ea03a24ac76ed1@email.prolific.co,32,2023-07-20_21h15.18.900,templeton2A_SD_practice,2020.2.10,Win32,60,,,,,,,,,,,,,,,,,,,,,,,2.7064,5.31521293,,,,,,,,,,,,,,,,,,,,,,,,,,,,,,,,,,,,,,,,,,,,,,,,,,,,,,,,,,,,,,,,,,,,,,,,,,,,,,,,,,,,,,,,,,,
,,,,,,,61744ea309ea03a24ac76ed1@email.prolific.co,32,2023-07-20_21h15.18.900,templeton2A_SD_practice,2020.2.10,Win32,60,,,,,,,,,,,,,,,,,,,,,,,2.7234,5.31521293,,,,,,,,,,,,,,,,,,,,,,,,,,,,,,,,,,,,,,,,,,,,,,,,,,,,,,,,,,,,,,,,,,,,,,,,,,,,,,,,,,,,,,,,,,,
,,,,,,,61744ea309ea03a24ac76ed1@email.prolific.co,32,2023-07-20_21h15.18.900,templeton2A_SD_practice,2020.2.10,Win32,60,,,,,,,,,,,,,,,,,,,,,,,2.7396,5.31521293,,,,,,,,,,,,,,,,,,,,,,,,,,,,,,,,,,,,,,,,,,,,,,,,,,,,,,,,,,,,,,,,,,,,,,,,,,,,,,,,,,,,,,,,,,,
,,,,,,,61744ea309ea03a24ac76ed1@email.prolific.co,32,2023-07-20_21h15.18.900,templeton2A_SD_practice,2020.2.10,Win32,60,,,,,,,,,,,,,,,,,,,,,,,2.7563,5.31521293,,,,,,,,,,,,,,,,,,,,,,,,,,,,,,,,,,,,,,,,,,,,,,,,,,,,,,,,,,,,,,,,,,,,,,,,,,,,,,,,,,,,,,,,,,,
,,,,,,,61744ea309ea03a24ac76ed1@email.prolific.co,32,2023-07-20_21h15.18.900,templeton2A_SD_practice,2020.2.10,Win32,60,,,,,,,,,,,,,,,,,,,,,,,2.7732,5.31521293,,,,,,,,,,,,,,,,,,,,,,,,,,,,,,,,,,,,,,,,,,,,,,,,,,,,,,,,,,,,,,,,,,,,,,,,,,,,,,,,,,,,,,,,,,,
,,,,,,,61744ea309ea03a24ac76ed1@email.prolific.co,32,2023-07-20_21h15.18.900,templeton2A_SD_practice,2020.2.10,Win32,60,,,,,,,,,,,,,,,,,,,,,,,2.7899,5.31521293,,,,,,,,,,,,,,,,,,,,,,,,,,,,,,,,,,,,,,,,,,,,,,,,,,,,,,,,,,,,,,,,,,,,,,,,,,,,,,,,,,,,,,,,,,,
,,,,,,,61744ea309ea03a24ac76ed1@email.prolific.co,32,2023-07-20_21h15.18.900,templeton2A_SD_practice,2020.2.10,Win32,60,,,,,,,,,,,,,,,,,,,,,,,2.8066,5.31521293,,,,,,,,,,,,,,,,,,,,,,,,,,,,,,,,,,,,,,,,,,,,,,,,,,,,,,,,,,,,,,,,,,,,,,,,,,,,,,,,,,,,,,,,,,,
,,,,,,,61744ea309ea03a24ac76ed1@email.prolific.co,32,2023-07-20_21h15.18.900,templeton2A_SD_practice,2020.2.10,Win32,60,,,,,,,,,,,,,,,,,,,,,,,2.8232,5.31521293,,,,,,,,,,,,,,,,,,,,,,,,,,,,,,,,,,,,,,,,,,,,,,,,,,,,,,,,,,,,,,,,,,,,,,,,,,,,,,,,,,,,,,,,,,,
,,,,,,,61744ea309ea03a24ac76ed1@email.prolific.co,32,2023-07-20_21h15.18.900,templeton2A_SD_practice,2020.2.10,Win32,60,,,,,,,,,,,,,,,,,,,,,,,2.8398,5.31521293,,,,,,,,,,,,,,,,,,,,,,,,,,,,,,,,,,,,,,,,,,,,,,,,,,,,,,,,,,,,,,,,,,,,,,,,,,,,,,,,,,,,,,,,,,,
,,,,,,,61744ea309ea03a24ac76ed1@email.prolific.co,32,2023-07-20_21h15.18.900,templeton2A_SD_practice,2020.2.10,Win32,60,,,,,,,,,,,,,,,,,,,,,,,2.8566,5.31521293,,,,,,,,,,,,,,,,,,,,,,,,,,,,,,,,,,,,,,,,,,,,,,,,,,,,,,,,,,,,,,,,,,,,,,,,,,,,,,,,,,,,,,,,,,,
,,,,,,,61744ea309ea03a24ac76ed1@email.prolific.co,32,2023-07-20_21h15.18.900,templeton2A_SD_practice,2020.2.10,Win32,60,,,,,,,,,,,,,,,,,,,,,,,2.8731,5.31521293,,,,,,,,,,,,,,,,,,,,,,,,,,,,,,,,,,,,,,,,,,,,,,,,,,,,,,,,,,,,,,,,,,,,,,,,,,,,,,,,,,,,,,,,,,,
,,,,,,,61744ea309ea03a24ac76ed1@email.prolific.co,32,2023-07-20_21h15.18.900,templeton2A_SD_practice,2020.2.10,Win32,60,,,,,,,,,,,,,,,,,,,,,,,2.8898,5.31521293,,,,,,,,,,,,,,,,,,,,,,,,,,,,,,,,,,,,,,,,,,,,,,,,,,,,,,,,,,,,,,,,,,,,,,,,,,,,,,,,,,,,,,,,,,,
,,,,,,,61744ea309ea03a24ac76ed1@email.prolific.co,32,2023-07-20_21h15.18.900,templeton2A_SD_practice,2020.2.10,Win32,60,,,,,,,,,,,,,,,,,,,,,,,2.9064,5.31521293,,,,,,,,,,,,,,,,,,,,,,,,,,,,,,,,,,,,,,,,,,,,,,,,,,,,,,,,,,,,,,,,,,,,,,,,,,,,,,,,,,,,,,,,,,,
,,,,,,,61744ea309ea03a24ac76ed1@email.prolific.co,32,2023-07-20_21h15.18.900,templeton2A_SD_practice,2020.2.10,Win32,60,,,,,,,,,,,,,,,,,,,,,,,2.9231,5.31521293,,,,,,,,,,,,,,,,,,,,,,,,,,,,,,,,,,,,,,,,,,,,,,,,,,,,,,,,,,,,,,,,,,,,,,,,,,,,,,,,,,,,,,,,,,,
,,,,,,,61744ea309ea03a24ac76ed1@email.prolific.co,32,2023-07-20_21h15.18.900,templeton2A_SD_practice,2020.2.10,Win32,60,,,,,,,,,,,,,,,,,,,,,,,2.9398,5.31521293,,,,,,,,,,,,,,,,,,,,,,,,,,,,,,,,,,,,,,,,,,,,,,,,,,,,,,,,,,,,,,,,,,,,,,,,,,,,,,,,,,,,,,,,,,,
,,,,,,,61744ea309ea03a24ac76ed1@email.prolific.co,32,2023-07-20_21h15.18.900,templeton2A_SD_practice,2020.2.10,Win32,60,,,,,,,,,,,,,,,,,,,,,,,2.957,5.31521293,,,,,,,,,,,,,,,,,,,,,,,,,,,,,,,,,,,,,,,,,,,,,,,,,,,,,,,,,,,,,,,,,,,,,,,,,,,,,,,,,,,,,,,,,,,
,,,,,,,61744ea309ea03a24ac76ed1@email.prolific.co,32,2023-07-20_21h15.18.900,templeton2A_SD_practice,2020.2.10,Win32,60,,,,,,,,,,,,,,,,,,,,,,,2.9734,5.31521293,,,,,,,,,,,,,,,,,,,,,,,,,,,,,,,,,,,,,,,,,,,,,,,,,,,,,,,,,,,,,,,,,,,,,,,,,,,,,,,,,,,,,,,,,,,
,,,,,,,61744ea309ea03a24ac76ed1@email.prolific.co,32,2023-07-20_21h15.18.900,templeton2A_SD_practice,2020.2.10,Win32,60,,,,,,,,,,,,,,,,,,,,,,,2.9897,5.31521293,,,,,,,,,,,,,,,,,,,,,,,,,,,,,,,,,,,,,,,,,,,,,,,,,,,,,,,,,,,,,,,,,,,,,,,,,,,,,,,,,,,,,,,,,,,
,,,,,,,61744ea309ea03a24ac76ed1@email.prolific.co,32,2023-07-20_21h15.18.900,templeton2A_SD_practice,2020.2.10,Win32,60,,,,,,,,,,,,,,,,,,,,,,,3.0061,5.31521293,,,,,,,,,,,,,,,,,,,,,,,,,,,,,,,,,,,,,,,,,,,,,,,,,,,,,,,,,,,,,,,,,,,,,,,,,,,,,,,,,,,,,,,,,,,
,,,,,,,61744ea309ea03a24ac76ed1@email.prolific.co,32,2023-07-20_21h15.18.900,templeton2A_SD_practice,2020.2.10,Win32,60,,,,,,,,,,,,,,,,,,,,,,,3.023,5.31521293,,,,,,,,,,,,,,,,,,,,,,,,,,,,,,,,,,,,,,,,,,,,,,,,,,,,,,,,,,,,,,,,,,,,,,,,,,,,,,,,,,,,,,,,,,,
,,,,,,,61744ea309ea03a24ac76ed1@email.prolific.co,32,2023-07-20_21h15.18.900,templeton2A_SD_practice,2020.2.10,Win32,60,,,,,,,,,,,,,,,,,,,,,,,3.0398,5.31521293,,,,,,,,,,,,,,,,,,,,,,,,,,,,,,,,,,,,,,,,,,,,,,,,,,,,,,,,,,,,,,,,,,,,,,,,,,,,,,,,,,,,,,,,,,,
,,,,,,,61744ea309ea03a24ac76ed1@email.prolific.co,32,2023-07-20_21h15.18.900,templeton2A_SD_practice,2020.2.10,Win32,60,,,,,,,,,,,,,,,,,,,,,,,3.0563,5.31521293,,,,,,,,,,,,,,,,,,,,,,,,,,,,,,,,,,,,,,,,,,,,,,,,,,,,,,,,,,,,,,,,,,,,,,,,,,,,,,,,,,,,,,,,,,,
,,,,,,,61744ea309ea03a24ac76ed1@email.prolific.co,32,2023-07-20_21h15.18.900,templeton2A_SD_practice,2020.2.10,Win32,60,,,,,,,,,,,,,,,,,,,,,,,3.073,5.31521293,,,,,,,,,,,,,,,,,,,,,,,,,,,,,,,,,,,,,,,,,,,,,,,,,,,,,,,,,,,,,,,,,,,,,,,,,,,,,,,,,,,,,,,,,,,
,,,,,,,61744ea309ea03a24ac76ed1@email.prolific.co,32,2023-07-20_21h15.18.900,templeton2A_SD_practice,2020.2.10,Win32,60,,,,,,,,,,,,,,,,,,,,,,,3.0896,5.31521293,,,,,,,,,,,,,,,,,,,,,,,,,,,,,,,,,,,,,,,,,,,,,,,,,,,,,,,,,,,,,,,,,,,,,,,,,,,,,,,,,,,,,,,,,,,
,,,,,,,61744ea309ea03a24ac76ed1@email.prolific.co,32,2023-07-20_21h15.18.900,templeton2A_SD_practice,2020.2.10,Win32,60,,,,,,,,,,,,,,,,,,,,,,,3.1063,5.31521293,,,,,,,,,,,,,,,,,,,,,,,,,,,,,,,,,,,,,,,,,,,,,,,,,,,,,,,,,,,,,,,,,,,,,,,,,,,,,,,,,,,,,,,,,,,
,,,,,,,61744ea309ea03a24ac76ed1@email.prolific.co,32,2023-07-20_21h15.18.900,templeton2A_SD_practice,2020.2.10,Win32,60,,,,,,,,,,,,,,,,,,,,,,,3.1229,5.31521293,,,,,,,,,,,,,,,,,,,,,,,,,,,,,,,,,,,,,,,,,,,,,,,,,,,,,,,,,,,,,,,,,,,,,,,,,,,,,,,,,,,,,,,,,,,
,,,,,,,61744ea309ea03a24ac76ed1@email.prolific.co,32,2023-07-20_21h15.18.900,templeton2A_SD_practice,2020.2.10,Win32,60,,,,,,,,,,,,,,,,,,,,,,,3.1396,5.31521293,,,,,,,,,,,,,,,,,,,,,,,,,,,,,,,,,,,,,,,,,,,,,,,,,,,,,,,,,,,,,,,,,,,,,,,,,,,,,,,,,,,,,,,,,,,
,,,,,,,61744ea309ea03a24ac76ed1@email.prolific.co,32,2023-07-20_21h15.18.900,templeton2A_SD_practice,2020.2.10,Win32,60,,,,,,,,,,,,,,,,,,,,,,,3.1562,5.31521293,,,,,,,,,,,,,,,,,,,,,,,,,,,,,,,,,,,,,,,,,,,,,,,,,,,,,,,,,,,,,,,,,,,,,,,,,,,,,,,,,,,,,,,,,,,
,,,,,,,61744ea309ea03a24ac76ed1@email.prolific.co,32,2023-07-20_21h15.18.900,templeton2A_SD_practice,2020.2.10,Win32,60,,,,,,,,,,,,,,,,,,,,,,,3.1729,5.31521293,,,,,,,,,,,,,,,,,,,,,,,,,,,,,,,,,,,,,,,,,,,,,,,,,,,,,,,,,,,,,,,,,,,,,,,,,,,,,,,,,,,,,,,,,,,
,,,,,,,61744ea309ea03a24ac76ed1@email.prolific.co,32,2023-07-20_21h15.18.900,templeton2A_SD_practice,2020.2.10,Win32,60,,,,,,,,,,,,,,,,,,,,,,,3.1895,5.31521293,,,,,,,,,,,,,,,,,,,,,,,,,,,,,,,,,,,,,,,,,,,,,,,,,,,,,,,,,,,,,,,,,,,,,,,,,,,,,,,,,,,,,,,,,,,
,,,,,,,61744ea309ea03a24ac76ed1@email.prolific.co,32,2023-07-20_21h15.18.900,templeton2A_SD_practice,2020.2.10,Win32,60,,,,,,,,,,,,,,,,,,,,,,,3.2062,5.31521293,,,,,,,,,,,,,,,,,,,,,,,,,,,,,,,,,,,,,,,,,,,,,,,,,,,,,,,,,,,,,,,,,,,,,,,,,,,,,,,,,,,,,,,,,,,
,,,,,,,61744ea309ea03a24ac76ed1@email.prolific.co,32,2023-07-20_21h15.18.900,templeton2A_SD_practice,2020.2.10,Win32,60,,,,,,,,,,,,,,,,,,,,,,,3.2229,5.31521293,,,,,,,,,,,,,,,,,,,,,,,,,,,,,,,,,,,,,,,,,,,,,,,,,,,,,,,,,,,,,,,,,,,,,,,,,,,,,,,,,,,,,,,,,,,
,,,,,,,61744ea309ea03a24ac76ed1@email.prolific.co,32,2023-07-20_21h15.18.900,templeton2A_SD_practice,2020.2.10,Win32,60,,,,,,,,,,,,,,,,,,,,,,,3.2404,5.31521293,,,,,,,,,,,,,,,,,,,,,,,,,,,,,,,,,,,,,,,,,,,,,,,,,,,,,,,,,,,,,,,,,,,,,,,,,,,,,,,,,,,,,,,,,,,
,,,,,,,61744ea309ea03a24ac76ed1@email.prolific.co,32,2023-07-20_21h15.18.900,templeton2A_SD_practice,2020.2.10,Win32,60,,,,,,,,,,,,,,,,,,,,,,,3.2561,5.31521293,,,,,,,,,,,,,,,,,,,,,,,,,,,,,,,,,,,,,,,,,,,,,,,,,,,,,,,,,,,,,,,,,,,,,,,,,,,,,,,,,,,,,,,,,,,
,,,,,,,61744ea309ea03a24ac76ed1@email.prolific.co,32,2023-07-20_21h15.18.900,templeton2A_SD_practice,2020.2.10,Win32,60,,,,,,,,,,,,,,,,,,,,,,,3.2728,5.31521293,,,,,,,,,,,,,,,,,,,,,,,,,,,,,,,,,,,,,,,,,,,,,,,,,,,,,,,,,,,,,,,,,,,,,,,,,,,,,,,,,,,,,,,,,,,
,,,,,,,61744ea309ea03a24ac76ed1@email.prolific.co,32,2023-07-20_21h15.18.900,templeton2A_SD_practice,2020.2.10,Win32,60,,,,,,,,,,,,,,,,,,,,,,,3.2894,5.31521293,,,,,,,,,,,,,,,,,,,,,,,,,,,,,,,,,,,,,,,,,,,,,,,,,,,,,,,,,,,,,,,,,,,,,,,,,,,,,,,,,,,,,,,,,,,
,,,,,,,61744ea309ea03a24ac76ed1@email.prolific.co,32,2023-07-20_21h15.18.900,templeton2A_SD_practice,2020.2.10,Win32,60,,,,,,,,,,,,,,,,,,,,,,,3.3061,5.31521293,,,,,,,,,,,,,,,,,,,,,,,,,,,,,,,,,,,,,,,,,,,,,,,,,,,,,,,,,,,,,,,,,,,,,,,,,,,,,,,,,,,,,,,,,,,
,,,,,,,61744ea309ea03a24ac76ed1@email.prolific.co,32,2023-07-20_21h15.18.900,templeton2A_SD_practice,2020.2.10,Win32,60,,,,,,,,,,,,,,,,,,,,,,,3.3224,5.31521293,,,,,,,,,,,,,,,,,,,,,,,,,,,,,,,,,,,,,,,,,,,,,,,,,,,,,,,,,,,,,,,,,,,,,,,,,,,,,,,,,,,,,,,,,,,
,,,,,,,61744ea309ea03a24ac76ed1@email.prolific.co,32,2023-07-20_21h15.18.900,templeton2A_SD_practice,2020.2.10,Win32,60,,,,,,,,,,,,,,,,,,,,,,,3.3391,5.31521293,,,,,,,,,,,,,,,,,,,,,,,,,,,,,,,,,,,,,,,,,,,,,,,,,,,,,,,,,,,,,,,,,,,,,,,,,,,,,,,,,,,,,,,,,,,
,,,,,,,61744ea309ea03a24ac76ed1@email.prolific.co,32,2023-07-20_21h15.18.900,templeton2A_SD_practice,2020.2.10,Win32,60,,,,,,,,,,,,,,,,,,,,,,,3.356,5.31521293,,,,,,,,,,,,,,,,,,,,,,,,,,,,,,,,,,,,,,,,,,,,,,,,,,,,,,,,,,,,,,,,,,,,,,,,,,,,,,,,,,,,,,,,,,,
,,,,,,,61744ea309ea03a24ac76ed1@email.prolific.co,32,2023-07-20_21h15.18.900,templeton2A_SD_practice,2020.2.10,Win32,60,,,,,,,,,,,,,,,,,,,,,,,3.3724,5.31521293,,,,,,,,,,,,,,,,,,,,,,,,,,,,,,,,,,,,,,,,,,,,,,,,,,,,,,,,,,,,,,,,,,,,,,,,,,,,,,,,,,,,,,,,,,,
,,,,,,,61744ea309ea03a24ac76ed1@email.prolific.co,32,2023-07-20_21h15.18.900,templeton2A_SD_practice,2020.2.10,Win32,60,,,,,,,,,,,,,,,,,,,,,,,3.3894,5.31521293,,,,,,,,,,,,,,,,,,,,,,,,,,,,,,,,,,,,,,,,,,,,,,,,,,,,,,,,,,,,,,,,,,,,,,,,,,,,,,,,,,,,,,,,,,,
,,,,,,,61744ea309ea03a24ac76ed1@email.prolific.co,32,2023-07-20_21h15.18.900,templeton2A_SD_practice,2020.2.10,Win32,60,,,,,,,,,,,,,,,,,,,,,,,3.406,5.31521293,,,,,,,,,,,,,,,,,,,,,,,,,,,,,,,,,,,,,,,,,,,,,,,,,,,,,,,,,,,,,,,,,,,,,,,,,,,,,,,,,,,,,,,,,,,
,,,,,,,61744ea309ea03a24ac76ed1@email.prolific.co,32,2023-07-20_21h15.18.900,templeton2A_SD_practice,2020.2.10,Win32,60,,,,,,,,,,,,,,,,,,,,,,,3.4233,5.31521293,,,,,,,,,,,,,,,,,,,,,,,,,,,,,,,,,,,,,,,,,,,,,,,,,,,,,,,,,,,,,,,,,,,,,,,,,,,,,,,,,,,,,,,,,,,
,,,,,,,61744ea309ea03a24ac76ed1@email.prolific.co,32,2023-07-20_21h15.18.900,templeton2A_SD_practice,2020.2.10,Win32,60,,,,,,,,,,,,,,,,,,,,,,,3.4393,5.31521293,,,,,,,,,,,,,,,,,,,,,,,,,,,,,,,,,,,,,,,,,,,,,,,,,,,,,,,,,,,,,,,,,,,,,,,,,,,,,,,,,,,,,,,,,,,
,,,,,,,61744ea309ea03a24ac76ed1@email.prolific.co,32,2023-07-20_21h15.18.900,templeton2A_SD_practice,2020.2.10,Win32,60,,,,,,,,,,,,,,,,,,,,,,,3.4557,5.31521293,,,,,,,,,,,,,,,,,,,,,,,,,,,,,,,,,,,,,,,,,,,,,,,,,,,,,,,,,,,,,,,,,,,,,,,,,,,,,,,,,,,,,,,,,,,
,,,,,,,61744ea309ea03a24ac76ed1@email.prolific.co,32,2023-07-20_21h15.18.900,templeton2A_SD_practice,2020.2.10,Win32,60,,,,,,,,,,,,,,,,,,,,,,,3.4725,5.31521293,,,,,,,,,,,,,,,,,,,,,,,,,,,,,,,,,,,,,,,,,,,,,,,,,,,,,,,,,,,,,,,,,,,,,,,,,,,,,,,,,,,,,,,,,,,
,,,,,,,61744ea309ea03a24ac76ed1@email.prolific.co,32,2023-07-20_21h15.18.900,templeton2A_SD_practice,2020.2.10,Win32,60,,,,,,,,,,,,,,,,,,,,,,,3.4892,5.31521293,,,,,,,,,,,,,,,,,,,,,,,,,,,,,,,,,,,,,,,,,,,,,,,,,,,,,,,,,,,,,,,,,,,,,,,,,,,,,,,,,,,,,,,,,,,
,,,,,,,61744ea309ea03a24ac76ed1@email.prolific.co,32,2023-07-20_21h15.18.900,templeton2A_SD_practice,2020.2.10,Win32,60,,,,,,,,,,,,,,,,,,,,,,,3.5059,5.31521293,,,,,,,,,,,,,,,,,,,,,,,,,,,,,,,,,,,,,,,,,,,,,,,,,,,,,,,,,,,,,,,,,,,,,,,,,,,,,,,,,,,,,,,,,,,
,,,,,,,61744ea309ea03a24ac76ed1@email.prolific.co,32,2023-07-20_21h15.18.900,templeton2A_SD_practice,2020.2.10,Win32,60,,,,,,,,,,,,,,,,,,,,,,,3.5226,5.31521293,,,,,,,,,,,,,,,,,,,,,,,,,,,,,,,,,,,,,,,,,,,,,,,,,,,,,,,,,,,,,,,,,,,,,,,,,,,,,,,,,,,,,,,,,,,
,,,,,,,61744ea309ea03a24ac76ed1@email.prolific.co,32,2023-07-20_21h15.18.900,templeton2A_SD_practice,2020.2.10,Win32,60,,,,,,,,,,,,,,,,,,,,,,,3.5391,5.31521293,,,,,,,,,,,,,,,,,,,,,,,,,,,,,,,,,,,,,,,,,,,,,,,,,,,,,,,,,,,,,,,,,,,,,,,,,,,,,,,,,,,,,,,,,,,
,,,,,,,61744ea309ea03a24ac76ed1@email.prolific.co,32,2023-07-20_21h15.18.900,templeton2A_SD_practice,2020.2.10,Win32,60,,,,,,,,,,,,,,,,,,,,,,,3.5556,5.31521293,,,,,,,,,,,,,,,,,,,,,,,,,,,,,,,,,,,,,,,,,,,,,,,,,,,,,,,,,,,,,,,,,,,,,,,,,,,,,,,,,,,,,,,,,,,
,,,,,,,61744ea309ea03a24ac76ed1@email.prolific.co,32,2023-07-20_21h15.18.900,templeton2A_SD_practice,2020.2.10,Win32,60,,,,,,,,,,,,,,,,,,,,,,,3.5725,5.31521293,,,,,,,,,,,,,,,,,,,,,,,,,,,,,,,,,,,,,,,,,,,,,,,,,,,,,,,,,,,,,,,,,,,,,,,,,,,,,,,,,,,,,,,,,,,
,,,,,,,61744ea309ea03a24ac76ed1@email.prolific.co,32,2023-07-20_21h15.18.900,templeton2A_SD_practice,2020.2.10,Win32,60,,,,,,,,,,,,,,,,,,,,,,,3.5891,5.31521293,,,,,,,,,,,,,,,,,,,,,,,,,,,,,,,,,,,,,,,,,,,,,,,,,,,,,,,,,,,,,,,,,,,,,,,,,,,,,,,,,,,,,,,,,,,
,,,,,,,61744ea309ea03a24ac76ed1@email.prolific.co,32,2023-07-20_21h15.18.900,templeton2A_SD_practice,2020.2.10,Win32,60,,,,,,,,,,,,,,,,,,,,,,,3.6058,5.31521293,,,,,,,,,,,,,,,,,,,,,,,,,,,,,,,,,,,,,,,,,,,,,,,,,,,,,,,,,,,,,,,,,,,,,,,,,,,,,,,,,,,,,,,,,,,
,,,,,,,61744ea309ea03a24ac76ed1@email.prolific.co,32,2023-07-20_21h15.18.900,templeton2A_SD_practice,2020.2.10,Win32,60,,,,,,,,,,,,,,,,,,,,,,,3.6224,5.31521293,,,,,,,,,,,,,,,,,,,,,,,,,,,,,,,,,,,,,,,,,,,,,,,,,,,,,,,,,,,,,,,,,,,,,,,,,,,,,,,,,,,,,,,,,,,
,,,,,,,61744ea309ea03a24ac76ed1@email.prolific.co,32,2023-07-20_21h15.18.900,templeton2A_SD_practice,2020.2.10,Win32,60,,,,,,,,,,,,,,,,,,,,,,,3.6392,5.31521293,,,,,,,,,,,,,,,,,,,,,,,,,,,,,,,,,,,,,,,,,,,,,,,,,,,,,,,,,,,,,,,,,,,,,,,,,,,,,,,,,,,,,,,,,,,
,,,,,,,61744ea309ea03a24ac76ed1@email.prolific.co,32,2023-07-20_21h15.18.900,templeton2A_SD_practice,2020.2.10,Win32,60,,,,,,,,,,,,,,,,,,,,,,,3.6553,5.31521293,,,,,,,,,,,,,,,,,,,,,,,,,,,,,,,,,,,,,,,,,,,,,,,,,,,,,,,,,,,,,,,,,,,,,,,,,,,,,,,,,,,,,,,,,,,
,,,,,,,61744ea309ea03a24ac76ed1@email.prolific.co,32,2023-07-20_21h15.18.900,templeton2A_SD_practice,2020.2.10,Win32,60,,,,,,,,,,,,,,,,,,,,,,,3.672,5.31521293,,,,,,,,,,,,,,,,,,,,,,,,,,,,,,,,,,,,,,,,,,,,,,,,,,,,,,,,,,,,,,,,,,,,,,,,,,,,,,,,,,,,,,,,,,,
,,,,,,,61744ea309ea03a24ac76ed1@email.prolific.co,32,2023-07-20_21h15.18.900,templeton2A_SD_practice,2020.2.10,Win32,60,,,,,,,,,,,,,,,,,,,,,,,3.689,5.31521293,,,,,,,,,,,,,,,,,,,,,,,,,,,,,,,,,,,,,,,,,,,,,,,,,,,,,,,,,,,,,,,,,,,,,,,,,,,,,,,,,,,,,,,,,,,
,,,,,,,61744ea309ea03a24ac76ed1@email.prolific.co,32,2023-07-20_21h15.18.900,templeton2A_SD_practice,2020.2.10,Win32,60,,,,,,,,,,,,,,,,,,,,,,,3.7053,5.31521293,,,,,,,,,,,,,,,,,,,,,,,,,,,,,,,,,,,,,,,,,,,,,,,,,,,,,,,,,,,,,,,,,,,,,,,,,,,,,,,,,,,,,,,,,,,
,,,,,,,61744ea309ea03a24ac76ed1@email.prolific.co,32,2023-07-20_21h15.18.900,templeton2A_SD_practice,2020.2.10,Win32,60,,,,,,,,,,,,,,,,,,,,,,,3.7224,5.31521293,,,,,,,,,,,,,,,,,,,,,,,,,,,,,,,,,,,,,,,,,,,,,,,,,,,,,,,,,,,,,,,,,,,,,,,,,,,,,,,,,,,,,,,,,,,
,,,,,,,61744ea309ea03a24ac76ed1@email.prolific.co,32,2023-07-20_21h15.18.900,templeton2A_SD_practice,2020.2.10,Win32,60,,,,,,,,,,,,,,,,,,,,,,,3.739,5.31521293,,,,,,,,,,,,,,,,,,,,,,,,,,,,,,,,,,,,,,,,,,,,,,,,,,,,,,,,,,,,,,,,,,,,,,,,,,,,,,,,,,,,,,,,,,,
,,,,,,,61744ea309ea03a24ac76ed1@email.prolific.co,32,2023-07-20_21h15.18.900,templeton2A_SD_practice,2020.2.10,Win32,60,,,,,,,,,,,,,,,,,,,,,,,3.7557,5.31521293,,,,,,,,,,,,,,,,,,,,,,,,,,,,,,,,,,,,,,,,,,,,,,,,,,,,,,,,,,,,,,,,,,,,,,,,,,,,,,,,,,,,,,,,,,,
,,,,,,,61744ea309ea03a24ac76ed1@email.prolific.co,32,2023-07-20_21h15.18.900,templeton2A_SD_practice,2020.2.10,Win32,60,,,,,,,,,,,,,,,,,,,,,,,3.7724,5.31521293,,,,,,,,,,,,,,,,,,,,,,,,,,,,,,,,,,,,,,,,,,,,,,,,,,,,,,,,,,,,,,,,,,,,,,,,,,,,,,,,,,,,,,,,,,,
,,,,,,,61744ea309ea03a24ac76ed1@email.prolific.co,32,2023-07-20_21h15.18.900,templeton2A_SD_practice,2020.2.10,Win32,60,,,,,,,,,,,,,,,,,,,,,,,3.789,5.31521293,,,,,,,,,,,,,,,,,,,,,,,,,,,,,,,,,,,,,,,,,,,,,,,,,,,,,,,,,,,,,,,,,,,,,,,,,,,,,,,,,,,,,,,,,,,
,,,,,,,61744ea309ea03a24ac76ed1@email.prolific.co,32,2023-07-20_21h15.18.900,templeton2A_SD_practice,2020.2.10,Win32,60,,,,,,,,,,,,,,,,,,,,,,,3.8055,5.31521293,,,,,,,,,,,,,,,,,,,,,,,,,,,,,,,,,,,,,,,,,,,,,,,,,,,,,,,,,,,,,,,,,,,,,,,,,,,,,,,,,,,,,,,,,,,
,,,,,,,61744ea309ea03a24ac76ed1@email.prolific.co,32,2023-07-20_21h15.18.900,templeton2A_SD_practice,2020.2.10,Win32,60,,,,,,,,,,,,,,,,,,,,,,,3.8223,5.31521293,,,,,,,,,,,,,,,,,,,,,,,,,,,,,,,,,,,,,,,,,,,,,,,,,,,,,,,,,,,,,,,,,,,,,,,,,,,,,,,,,,,,,,,,,,,
,,,,,,,61744ea309ea03a24ac76ed1@email.prolific.co,32,2023-07-20_21h15.18.900,templeton2A_SD_practice,2020.2.10,Win32,60,,,,,,,,,,,,,,,,,,,,,,,3.8388,5.31521293,,,,,,,,,,,,,,,,,,,,,,,,,,,,,,,,,,,,,,,,,,,,,,,,,,,,,,,,,,,,,,,,,,,,,,,,,,,,,,,,,,,,,,,,,,,
,,,,,,,61744ea309ea03a24ac76ed1@email.prolific.co,32,2023-07-20_21h15.18.900,templeton2A_SD_practice,2020.2.10,Win32,60,,,,,,,,,,,,,,,,,,,,,,,3.8555,5.31521293,,,,,,,,,,,,,,,,,,,,,,,,,,,,,,,,,,,,,,,,,,,,,,,,,,,,,,,,,,,,,,,,,,,,,,,,,,,,,,,,,,,,,,,,,,,
,,,,,,,61744ea309ea03a24ac76ed1@email.prolific.co,32,2023-07-20_21h15.18.900,templeton2A_SD_practice,2020.2.10,Win32,60,,,,,,,,,,,,,,,,,,,,,,,3.8722,5.31521293,,,,,,,,,,,,,,,,,,,,,,,,,,,,,,,,,,,,,,,,,,,,,,,,,,,,,,,,,,,,,,,,,,,,,,,,,,,,,,,,,,,,,,,,,,,
,,,,,,,61744ea309ea03a24ac76ed1@email.prolific.co,32,2023-07-20_21h15.18.900,templeton2A_SD_practice,2020.2.10,Win32,60,,,,,,,,,,,,,,,,,,,,,,,3.8889,5.31521293,,,,,,,,,,,,,,,,,,,,,,,,,,,,,,,,,,,,,,,,,,,,,,,,,,,,,,,,,,,,,,,,,,,,,,,,,,,,,,,,,,,,,,,,,,,
,,,,,,,61744ea309ea03a24ac76ed1@email.prolific.co,32,2023-07-20_21h15.18.900,templeton2A_SD_practice,2020.2.10,Win32,60,,,,,,,,,,,,,,,,,,,,,,,3.9055,5.31521293,,,,,,,,,,,,,,,,,,,,,,,,,,,,,,,,,,,,,,,,,,,,,,,,,,,,,,,,,,,,,,,,,,,,,,,,,,,,,,,,,,,,,,,,,,,
,,,,,,,61744ea309ea03a24ac76ed1@email.prolific.co,32,2023-07-20_21h15.18.900,templeton2A_SD_practice,2020.2.10,Win32,60,,,,,,,,,,,,,,,,,,,,,,,3.9221,5.31521293,,,,,,,,,,,,,,,,,,,,,,,,,,,,,,,,,,,,,,,,,,,,,,,,,,,,,,,,,,,,,,,,,,,,,,,,,,,,,,,,,,,,,,,,,,,
,,,,,,,61744ea309ea03a24ac76ed1@email.prolific.co,32,2023-07-20_21h15.18.900,templeton2A_SD_practice,2020.2.10,Win32,60,,,,,,,,,,,,,,,,,,,,,,,3.9387,5.31521293,,,,,,,,,,,,,,,,,,,,,,,,,,,,,,,,,,,,,,,,,,,,,,,,,,,,,,,,,,,,,,,,,,,,,,,,,,,,,,,,,,,,,,,,,,,
,,,,,,,61744ea309ea03a24ac76ed1@email.prolific.co,32,2023-07-20_21h15.18.900,templeton2A_SD_practice,2020.2.10,Win32,60,,,,,,,,,,,,,,,,,,,,,,,3.9555,5.31521293,,,,,,,,,,,,,,,,,,,,,,,,,,,,,,,,,,,,,,,,,,,,,,,,,,,,,,,,,,,,,,,,,,,,,,,,,,,,,,,,,,,,,,,,,,,
,,,,,,,61744ea309ea03a24ac76ed1@email.prolific.co,32,2023-07-20_21h15.18.900,templeton2A_SD_practice,2020.2.10,Win32,60,,,,,,,,,,,,,,,,,,,,,,,3.9718,5.31521293,,,,,,,,,,,,,,,,,,,,,,,,,,,,,,,,,,,,,,,,,,,,,,,,,,,,,,,,,,,,,,,,,,,,,,,,,,,,,,,,,,,,,,,,,,,
,,,,,,,61744ea309ea03a24ac76ed1@email.prolific.co,32,2023-07-20_21h15.18.900,templeton2A_SD_practice,2020.2.10,Win32,60,,,,,,,,,,,,,,,,,,,,,,,3.9885,5.31521293,,,,,,,,,,,,,,,,,,,,,,,,,,,,,,,,,,,,,,,,,,,,,,,,,,,,,,,,,,,,,,,,,,,,,,,,,,,,,,,,,,,,,,,,,,,
,,,,,,,61744ea309ea03a24ac76ed1@email.prolific.co,32,2023-07-20_21h15.18.900,templeton2A_SD_practice,2020.2.10,Win32,60,,,,,,,,,,,,,,,,,,,,,,,4.0051,5.31521293,,,,,,,,,,,,,,,,,,,,,,,,,,,,,,,,,,,,,,,,,,,,,,,,,,,,,,,,,,,,,,,,,,,,,,,,,,,,,,,,,,,,,,,,,,,
,,,,,,,61744ea309ea03a24ac76ed1@email.prolific.co,32,2023-07-20_21h15.18.900,templeton2A_SD_practice,2020.2.10,Win32,60,,,,,,,,,,,,,,,,,,,,,,,4.0218,5.31521293,,,,,,,,,,,,,,,,,,,,,,,,,,,,,,,,,,,,,,,,,,,,,,,,,,,,,,,,,,,,,,,,,,,,,,,,,,,,,,,,,,,,,,,,,,,
,,,,,,,61744ea309ea03a24ac76ed1@email.prolific.co,32,2023-07-20_21h15.18.900,templeton2A_SD_practice,2020.2.10,Win32,60,,,,,,,,,,,,,,,,,,,,,,,4.0387,5.31521293,,,,,,,,,,,,,,,,,,,,,,,,,,,,,,,,,,,,,,,,,,,,,,,,,,,,,,,,,,,,,,,,,,,,,,,,,,,,,,,,,,,,,,,,,,,
,,,,,,,61744ea309ea03a24ac76ed1@email.prolific.co,32,2023-07-20_21h15.18.900,templeton2A_SD_practice,2020.2.10,Win32,60,,,,,,,,,,,,,,,,,,,,,,,4.0553,5.31521293,,,,,,,,,,,,,,,,,,,,,,,,,,,,,,,,,,,,,,,,,,,,,,,,,,,,,,,,,,,,,,,,,,,,,,,,,,,,,,,,,,,,,,,,,,,
,,,,,,,61744ea309ea03a24ac76ed1@email.prolific.co,32,2023-07-20_21h15.18.900,templeton2A_SD_practice,2020.2.10,Win32,60,,,,,,,,,,,,,,,,,,,,,,,4.072,5.31521293,,,,,,,,,,,,,,,,,,,,,,,,,,,,,,,,,,,,,,,,,,,,,,,,,,,,,,,,,,,,,,,,,,,,,,,,,,,,,,,,,,,,,,,,,,,
,,,,,,,61744ea309ea03a24ac76ed1@email.prolific.co,32,2023-07-20_21h15.18.900,templeton2A_SD_practice,2020.2.10,Win32,60,,,,,,,,,,,,,,,,,,,,,,,4.0887,5.31521293,,,,,,,,,,,,,,,,,,,,,,,,,,,,,,,,,,,,,,,,,,,,,,,,,,,,,,,,,,,,,,,,,,,,,,,,,,,,,,,,,,,,,,,,,,,
,,,,,,,61744ea309ea03a24ac76ed1@email.prolific.co,32,2023-07-20_21h15.18.900,templeton2A_SD_practice,2020.2.10,Win32,60,,,,,,,,,,,,,,,,,,,,,,,4.1053,5.31521293,,,,,,,,,,,,,,,,,,,,,,,,,,,,,,,,,,,,,,,,,,,,,,,,,,,,,,,,,,,,,,,,,,,,,,,,,,,,,,,,,,,,,,,,,,,
,,,,,,,61744ea309ea03a24ac76ed1@email.prolific.co,32,2023-07-20_21h15.18.900,templeton2A_SD_practice,2020.2.10,Win32,60,,,,,,,,,,,,,,,,,,,,,,,4.1235,5.31521293,,,,,,,,,,,,,,,,,,,,,,,,,,,,,,,,,,,,,,,,,,,,,,,,,,,,,,,,,,,,,,,,,,,,,,,,,,,,,,,,,,,,,,,,,,,
,,,,,,,61744ea309ea03a24ac76ed1@email.prolific.co,32,2023-07-20_21h15.18.900,templeton2A_SD_practice,2020.2.10,Win32,60,,,,,,,,,,,,,,,,,,,,,,,4.1386,5.31521293,,,,,,,,,,,,,,,,,,,,,,,,,,,,,,,,,,,,,,,,,,,,,,,,,,,,,,,,,,,,,,,,,,,,,,,,,,,,,,,,,,,,,,,,,,,
,,,,,,,61744ea309ea03a24ac76ed1@email.prolific.co,32,2023-07-20_21h15.18.900,templeton2A_SD_practice,2020.2.10,Win32,60,,,,,,,,,,,,,,,,,,,,,,,4.1552,5.31521293,,,,,,,,,,,,,,,,,,,,,,,,,,,,,,,,,,,,,,,,,,,,,,,,,,,,,,,,,,,,,,,,,,,,,,,,,,,,,,,,,,,,,,,,,,,
,,,,,,,61744ea309ea03a24ac76ed1@email.prolific.co,32,2023-07-20_21h15.18.900,templeton2A_SD_practice,2020.2.10,Win32,60,,,,,,,,,,,,,,,,,,,,,,,4.1719,5.31521293,,,,,,,,,,,,,,,,,,,,,,,,,,,,,,,,,,,,,,,,,,,,,,,,,,,,,,,,,,,,,,,,,,,,,,,,,,,,,,,,,,,,,,,,,,,
,,,,,,,61744ea309ea03a24ac76ed1@email.prolific.co,32,2023-07-20_21h15.18.900,templeton2A_SD_practice,2020.2.10,Win32,60,,,,,,,,,,,,,,,,,,,,,,,4.1884,5.31521293,,,,,,,,,,,,,,,,,,,,,,,,,,,,,,,,,,,,,,,,,,,,,,,,,,,,,,,,,,,,,,,,,,,,,,,,,,,,,,,,,,,,,,,,,,,
,,,,,,,61744ea309ea03a24ac76ed1@email.prolific.co,32,2023-07-20_21h15.18.900,templeton2A_SD_practice,2020.2.10,Win32,60,,,,,,,,,,,,,,,,,,,,,,,4.2051,5.31521293,,,,,,,,,,,,,,,,,,,,,,,,,,,,,,,,,,,,,,,,,,,,,,,,,,,,,,,,,,,,,,,,,,,,,,,,,,,,,,,,,,,,,,,,,,,
,,,,,,,61744ea309ea03a24ac76ed1@email.prolific.co,32,2023-07-20_21h15.18.900,templeton2A_SD_practice,2020.2.10,Win32,60,,,,,,,,,,,,,,,,,,,,,,,4.2217,5.31521293,,,,,,,,,,,,,,,,,,,,,,,,,,,,,,,,,,,,,,,,,,,,,,,,,,,,,,,,,,,,,,,,,,,,,,,,,,,,,,,,,,,,,,,,,,,
,,,,,,,61744ea309ea03a24ac76ed1@email.prolific.co,32,2023-07-20_21h15.18.900,templeton2A_SD_practice,2020.2.10,Win32,60,,,,,,,,,,,,,,,,,,,,,,,4.2378,5.31521293,,,,,,,,,,,,,,,,,,,,,,,,,,,,,,,,,,,,,,,,,,,,,,,,,,,,,,,,,,,,,,,,,,,,,,,,,,,,,,,,,,,,,,,,,,,
,,,,,,,61744ea309ea03a24ac76ed1@email.prolific.co,32,2023-07-20_21h15.18.900,templeton2A_SD_practice,2020.2.10,Win32,60,,,,,,,,,,,,,,,,,,,,,,,4.2548,5.31521293,,,,,,,,,,,,,,,,,,,,,,,,,,,,,,,,,,,,,,,,,,,,,,,,,,,,,,,,,,,,,,,,,,,,,,,,,,,,,,,,,,,,,,,,,,,
,,,,,,,61744ea309ea03a24ac76ed1@email.prolific.co,32,2023-07-20_21h15.18.900,templeton2A_SD_practice,2020.2.10,Win32,60,,,,,,,,,,,,,,,,,,,,,,,4.2716,5.31521293,,,,,,,,,,,,,,,,,,,,,,,,,,,,,,,,,,,,,,,,,,,,,,,,,,,,,,,,,,,,,,,,,,,,,,,,,,,,,,,,,,,,,,,,,,,
,,,,,,,61744ea309ea03a24ac76ed1@email.prolific.co,32,2023-07-20_21h15.18.900,templeton2A_SD_practice,2020.2.10,Win32,60,,,,,,,,,,,,,,,,,,,,,,,4.2884,5.31521293,,,,,,,,,,,,,,,,,,,,,,,,,,,,,,,,,,,,,,,,,,,,,,,,,,,,,,,,,,,,,,,,,,,,,,,,,,,,,,,,,,,,,,,,,,,
,,,,,,,61744ea309ea03a24ac76ed1@email.prolific.co,32,2023-07-20_21h15.18.900,templeton2A_SD_practice,2020.2.10,Win32,60,,,,,,,,,,,,,,,,,,,,,,,4.3052,5.31521293,,,,,,,,,,,,,,,,,,,,,,,,,,,,,,,,,,,,,,,,,,,,,,,,,,,,,,,,,,,,,,,,,,,,,,,,,,,,,,,,,,,,,,,,,,,
,,,,,,,61744ea309ea03a24ac76ed1@email.prolific.co,32,2023-07-20_21h15.18.900,templeton2A_SD_practice,2020.2.10,Win32,60,,,,,,,,,,,,,,,,,,,,,,,4.3213,5.31521293,,,,,,,,,,,,,,,,,,,,,,,,,,,,,,,,,,,,,,,,,,,,,,,,,,,,,,,,,,,,,,,,,,,,,,,,,,,,,,,,,,,,,,,,,,,
,,,,,,,61744ea309ea03a24ac76ed1@email.prolific.co,32,2023-07-20_21h15.18.900,templeton2A_SD_practice,2020.2.10,Win32,60,,,,,,,,,,,,,,,,,,,,,,,4.3381,5.31521293,,,,,,,,,,,,,,,,,,,,,,,,,,,,,,,,,,,,,,,,,,,,,,,,,,,,,,,,,,,,,,,,,,,,,,,,,,,,,,,,,,,,,,,,,,,
,,,,,,,61744ea309ea03a24ac76ed1@email.prolific.co,32,2023-07-20_21h15.18.900,templeton2A_SD_practice,2020.2.10,Win32,60,,,,,,,,,,,,,,,,,,,,,,,4.3549,5.31521293,,,,,,,,,,,,,,,,,,,,,,,,,,,,,,,,,,,,,,,,,,,,,,,,,,,,,,,,,,,,,,,,,,,,,,,,,,,,,,,,,,,,,,,,,,,
,,,,,,,61744ea309ea03a24ac76ed1@email.prolific.co,32,2023-07-20_21h15.18.900,templeton2A_SD_practice,2020.2.10,Win32,60,,,,,,,,,,,,,,,,,,,,,,,4.3716,5.31521293,,,,,,,,,,,,,,,,,,,,,,,,,,,,,,,,,,,,,,,,,,,,,,,,,,,,,,,,,,,,,,,,,,,,,,,,,,,,,,,,,,,,,,,,,,,
,,,,,,,61744ea309ea03a24ac76ed1@email.prolific.co,32,2023-07-20_21h15.18.900,templeton2A_SD_practice,2020.2.10,Win32,60,,,,,,,,,,,,,,,,,,,,,,,4.3883,5.31521293,,,,,,,,,,,,,,,,,,,,,,,,,,,,,,,,,,,,,,,,,,,,,,,,,,,,,,,,,,,,,,,,,,,,,,,,,,,,,,,,,,,,,,,,,,,
,,,,,,,61744ea309ea03a24ac76ed1@email.prolific.co,32,2023-07-20_21h15.18.900,templeton2A_SD_practice,2020.2.10,Win32,60,,,,,,,,,,,,,,,,,,,,,,,4.405,5.31521293,,,,,,,,,,,,,,,,,,,,,,,,,,,,,,,,,,,,,,,,,,,,,,,,,,,,,,,,,,,,,,,,,,,,,,,,,,,,,,,,,,,,,,,,,,,
,,,,,,,61744ea309ea03a24ac76ed1@email.prolific.co,32,2023-07-20_21h15.18.900,templeton2A_SD_practice,2020.2.10,Win32,60,,,,,,,,,,,,,,,,,,,,,,,4.4217,5.31521293,,,,,,,,,,,,,,,,,,,,,,,,,,,,,,,,,,,,,,,,,,,,,,,,,,,,,,,,,,,,,,,,,,,,,,,,,,,,,,,,,,,,,,,,,,,
,,,,,,,61744ea309ea03a24ac76ed1@email.prolific.co,32,2023-07-20_21h15.18.900,templeton2A_SD_practice,2020.2.10,Win32,60,,,,,,,,,,,,,,,,,,,,,,,4.4382,5.31521293,,,,,,,,,,,,,,,,,,,,,,,,,,,,,,,,,,,,,,,,,,,,,,,,,,,,,,,,,,,,,,,,,,,,,,,,,,,,,,,,,,,,,,,,,,,
,,,,,,,61744ea309ea03a24ac76ed1@email.prolific.co,32,2023-07-20_21h15.18.900,templeton2A_SD_practice,2020.2.10,Win32,60,,,,,,,,,,,,,,,,,,,,,,,4.4549,5.31521293,,,,,,,,,,,,,,,,,,,,,,,,,,,,,,,,,,,,,,,,,,,,,,,,,,,,,,,,,,,,,,,,,,,,,,,,,,,,,,,,,,,,,,,,,,,
,,,,,,,61744ea309ea03a24ac76ed1@email.prolific.co,32,2023-07-20_21h15.18.900,templeton2A_SD_practice,2020.2.10,Win32,60,,,,,,,,,,,,,,,,,,,,,,,4.4716,5.31521293,,,,,,,,,,,,,,,,,,,,,,,,,,,,,,,,,,,,,,,,,,,,,,,,,,,,,,,,,,,,,,,,,,,,,,,,,,,,,,,,,,,,,,,,,,,
,,,,,,,61744ea309ea03a24ac76ed1@email.prolific.co,32,2023-07-20_21h15.18.900,templeton2A_SD_practice,2020.2.10,Win32,60,,,,,,,,,,,,,,,,,,,,,,,4.4883,5.31521293,,,,,,,,,,,,,,,,,,,,,,,,,,,,,,,,,,,,,,,,,,,,,,,,,,,,,,,,,,,,,,,,,,,,,,,,,,,,,,,,,,,,,,,,,,,
,,,,,,,61744ea309ea03a24ac76ed1@email.prolific.co,32,2023-07-20_21h15.18.900,templeton2A_SD_practice,2020.2.10,Win32,60,,,,,,,,,,,,,,,,,,,,,,,4.5049,5.31521293,,,,,,,,,,,,,,,,,,,,,,,,,,,,,,,,,,,,,,,,,,,,,,,,,,,,,,,,,,,,,,,,,,,,,,,,,,,,,,,,,,,,,,,,,,,
,,,,,,,61744ea309ea03a24ac76ed1@email.prolific.co,32,2023-07-20_21h15.18.900,templeton2A_SD_practice,2020.2.10,Win32,60,,,,,,,,,,,,,,,,,,,,,,,4.5216,5.31521293,,,,,,,,,,,,,,,,,,,,,,,,,,,,,,,,,,,,,,,,,,,,,,,,,,,,,,,,,,,,,,,,,,,,,,,,,,,,,,,,,,,,,,,,,,,
,,,,,,,61744ea309ea03a24ac76ed1@email.prolific.co,32,2023-07-20_21h15.18.900,templeton2A_SD_practice,2020.2.10,Win32,60,,,,,,,,,,,,,,,,,,,,,,,4.5382,5.31521293,,,,,,,,,,,,,,,,,,,,,,,,,,,,,,,,,,,,,,,,,,,,,,,,,,,,,,,,,,,,,,,,,,,,,,,,,,,,,,,,,,,,,,,,,,,
,,,,,,,61744ea309ea03a24ac76ed1@email.prolific.co,32,2023-07-20_21h15.18.900,templeton2A_SD_practice,2020.2.10,Win32,60,,,,,,,,,,,,,,,,,,,,,,,4.5548,5.31521293,,,,,,,,,,,,,,,,,,,,,,,,,,,,,,,,,,,,,,,,,,,,,,,,,,,,,,,,,,,,,,,,,,,,,,,,,,,,,,,,,,,,,,,,,,,
,,,,,,,61744ea309ea03a24ac76ed1@email.prolific.co,32,2023-07-20_21h15.18.900,templeton2A_SD_practice,2020.2.10,Win32,60,,,,,,,,,,,,,,,,,,,,,,,4.5715,5.31521293,,,,,,,,,,,,,,,,,,,,,,,,,,,,,,,,,,,,,,,,,,,,,,,,,,,,,,,,,,,,,,,,,,,,,,,,,,,,,,,,,,,,,,,,,,,
,,,,,,,61744ea309ea03a24ac76ed1@email.prolific.co,32,2023-07-20_21h15.18.900,templeton2A_SD_practice,2020.2.10,Win32,60,,,,,,,,,,,,,,,,,,,,,,,4.5881,5.31521293,,,,,,,,,,,,,,,,,,,,,,,,,,,,,,,,,,,,,,,,,,,,,,,,,,,,,,,,,,,,,,,,,,,,,,,,,,,,,,,,,,,,,,,,,,,
,,,,,,,61744ea309ea03a24ac76ed1@email.prolific.co,32,2023-07-20_21h15.18.900,templeton2A_SD_practice,2020.2.10,Win32,60,,,,,,,,,,,,,,,,,,,,,,,4.6048,5.31521293,,,,,,,,,,,,,,,,,,,,,,,,,,,,,,,,,,,,,,,,,,,,,,,,,,,,,,,,,,,,,,,,,,,,,,,,,,,,,,,,,,,,,,,,,,,
,,,,,,,61744ea309ea03a24ac76ed1@email.prolific.co,32,2023-07-20_21h15.18.900,templeton2A_SD_practice,2020.2.10,Win32,60,,,,,,,,,,,,,,,,,,,,,,,4.6214,5.31521293,,,,,,,,,,,,,,,,,,,,,,,,,,,,,,,,,,,,,,,,,,,,,,,,,,,,,,,,,,,,,,,,,,,,,,,,,,,,,,,,,,,,,,,,,,,
,,,,,,,61744ea309ea03a24ac76ed1@email.prolific.co,32,2023-07-20_21h15.18.900,templeton2A_SD_practice,2020.2.10,Win32,60,,,,,,,,,,,,,,,,,,,,,,,4.6381,5.31521293,,,,,,,,,,,,,,,,,,,,,,,,,,,,,,,,,,,,,,,,,,,,,,,,,,,,,,,,,,,,,,,,,,,,,,,,,,,,,,,,,,,,,,,,,,,
,,,,,,,61744ea309ea03a24ac76ed1@email.prolific.co,32,2023-07-20_21h15.18.900,templeton2A_SD_practice,2020.2.10,Win32,60,,,,,,,,,,,,,,,,,,,,,,,4.6547,5.31521293,,,,,,,,,,,,,,,,,,,,,,,,,,,,,,,,,,,,,,,,,,,,,,,,,,,,,,,,,,,,,,,,,,,,,,,,,,,,,,,,,,,,,,,,,,,
,,,,,,,61744ea309ea03a24ac76ed1@email.prolific.co,32,2023-07-20_21h15.18.900,templeton2A_SD_practice,2020.2.10,Win32,60,,,,,,,,,,,,,,,,,,,,,,,4.6712,5.31521293,,,,,,,,,,,,,,,,,,,,,,,,,,,,,,,,,,,,,,,,,,,,,,,,,,,,,,,,,,,,,,,,,,,,,,,,,,,,,,,,,,,,,,,,,,,
,,,,,,,61744ea309ea03a24ac76ed1@email.prolific.co,32,2023-07-20_21h15.18.900,templeton2A_SD_practice,2020.2.10,Win32,60,,,,,,,,,,,,,,,,,,,,,,,4.6877,5.31521293,,,,,,,,,,,,,,,,,,,,,,,,,,,,,,,,,,,,,,,,,,,,,,,,,,,,,,,,,,,,,,,,,,,,,,,,,,,,,,,,,,,,,,,,,,,
,,,,,,,61744ea309ea03a24ac76ed1@email.prolific.co,32,2023-07-20_21h15.18.900,templeton2A_SD_practice,2020.2.10,Win32,60,,,,,,,,,,,,,,,,,,,,,,,4.7047,5.31521293,,,,,,,,,,,,,,,,,,,,,,,,,,,,,,,,,,,,,,,,,,,,,,,,,,,,,,,,,,,,,,,,,,,,,,,,,,,,,,,,,,,,,,,,,,,
,,,,,,,61744ea309ea03a24ac76ed1@email.prolific.co,32,2023-07-20_21h15.18.900,templeton2A_SD_practice,2020.2.10,Win32,60,,,,,,,,,,,,,,,,,,,,,,,4.7213,5.31521293,,,,,,,,,,,,,,,,,,,,,,,,,,,,,,,,,,,,,,,,,,,,,,,,,,,,,,,,,,,,,,,,,,,,,,,,,,,,,,,,,,,,,,,,,,,
,,,,,,,61744ea309ea03a24ac76ed1@email.prolific.co,32,2023-07-20_21h15.18.900,templeton2A_SD_practice,2020.2.10,Win32,60,,,,,,,,,,,,,,,,,,,,,,,4.7379,5.31521293,,,,,,,,,,,,,,,,,,,,,,,,,,,,,,,,,,,,,,,,,,,,,,,,,,,,,,,,,,,,,,,,,,,,,,,,,,,,,,,,,,,,,,,,,,,
,,,,,,,61744ea309ea03a24ac76ed1@email.prolific.co,32,2023-07-20_21h15.18.900,templeton2A_SD_practice,2020.2.10,Win32,60,,,,,,,,,,,,,,,,,,,,,,,4.7546,5.31521293,,,,,,,,,,,,,,,,,,,,,,,,,,,,,,,,,,,,,,,,,,,,,,,,,,,,,,,,,,,,,,,,,,,,,,,,,,,,,,,,,,,,,,,,,,,
,,,,,,,61744ea309ea03a24ac76ed1@email.prolific.co,32,2023-07-20_21h15.18.900,templeton2A_SD_practice,2020.2.10,Win32,60,,,,,,,,,,,,,,,,,,,,,,,4.7713,5.31521293,,,,,,,,,,,,,,,,,,,,,,,,,,,,,,,,,,,,,,,,,,,,,,,,,,,,,,,,,,,,,,,,,,,,,,,,,,,,,,,,,,,,,,,,,,,
,,,,,,,61744ea309ea03a24ac76ed1@email.prolific.co,32,2023-07-20_21h15.18.900,templeton2A_SD_practice,2020.2.10,Win32,60,,,,,,,,,,,,,,,,,,,,,,,4.788,5.31521293,,,,,,,,,,,,,,,,,,,,,,,,,,,,,,,,,,,,,,,,,,,,,,,,,,,,,,,,,,,,,,,,,,,,,,,,,,,,,,,,,,,,,,,,,,,
,,,,,,,61744ea309ea03a24ac76ed1@email.prolific.co,32,2023-07-20_21h15.18.900,templeton2A_SD_practice,2020.2.10,Win32,60,,,,,,,,,,,,,,,,,,,,,,,4.8045,5.31521293,,,,,,,,,,,,,,,,,,,,,,,,,,,,,,,,,,,,,,,,,,,,,,,,,,,,,,,,,,,,,,,,,,,,,,,,,,,,,,,,,,,,,,,,,,,
,,,,,,,61744ea309ea03a24ac76ed1@email.prolific.co,32,2023-07-20_21h15.18.900,templeton2A_SD_practice,2020.2.10,Win32,60,,,,,,,,,,,,,,,,,,,,,,,4.8213,5.31521293,,,,,,,,,,,,,,,,,,,,,,,,,,,,,,,,,,,,,,,,,,,,,,,,,,,,,,,,,,,,,,,,,,,,,,,,,,,,,,,,,,,,,,,,,,,
,,,,,,,61744ea309ea03a24ac76ed1@email.prolific.co,32,2023-07-20_21h15.18.900,templeton2A_SD_practice,2020.2.10,Win32,60,,,,,,,,,,,,,,,,,,,,,,,4.8381,5.31521293,,,,,,,,,,,,,,,,,,,,,,,,,,,,,,,,,,,,,,,,,,,,,,,,,,,,,,,,,,,,,,,,,,,,,,,,,,,,,,,,,,,,,,,,,,,
,,,,,,,61744ea309ea03a24ac76ed1@email.prolific.co,32,2023-07-20_21h15.18.900,templeton2A_SD_practice,2020.2.10,Win32,60,,,,,,,,,,,,,,,,,,,,,,,4.8545,5.31521293,,,,,,,,,,,,,,,,,,,,,,,,,,,,,,,,,,,,,,,,,,,,,,,,,,,,,,,,,,,,,,,,,,,,,,,,,,,,,,,,,,,,,,,,,,,
,,,,,,,61744ea309ea03a24ac76ed1@email.prolific.co,32,2023-07-20_21h15.18.900,templeton2A_SD_practice,2020.2.10,Win32,60,,,,,,,,,,,,,,,,,,,,,,,4.8712,5.31521293,,,,,,,,,,,,,,,,,,,,,,,,,,,,,,,,,,,,,,,,,,,,,,,,,,,,,,,,,,,,,,,,,,,,,,,,,,,,,,,,,,,,,,,,,,,
,,,,,,,61744ea309ea03a24ac76ed1@email.prolific.co,32,2023-07-20_21h15.18.900,templeton2A_SD_practice,2020.2.10,Win32,60,,,,,,,,,,,,,,,,,,,,,,,4.8878,5.31521293,,,,,,,,,,,,,,,,,,,,,,,,,,,,,,,,,,,,,,,,,,,,,,,,,,,,,,,,,,,,,,,,,,,,,,,,,,,,,,,,,,,,,,,,,,,
,,,,,,,61744ea309ea03a24ac76ed1@email.prolific.co,32,2023-07-20_21h15.18.900,templeton2A_SD_practice,2020.2.10,Win32,60,,,,,,,,,,,,,,,,,,,,,,,4.9045,5.31521293,,,,,,,,,,,,,,,,,,,,,,,,,,,,,,,,,,,,,,,,,,,,,,,,,,,,,,,,,,,,,,,,,,,,,,,,,,,,,,,,,,,,,,,,,,,
,,,,,,,61744ea309ea03a24ac76ed1@email.prolific.co,32,2023-07-20_21h15.18.900,templeton2A_SD_practice,2020.2.10,Win32,60,,,,,,,,,,,,,,,,,,,,,,,4.9212,5.31521293,,,,,,,,,,,,,,,,,,,,,,,,,,,,,,,,,,,,,,,,,,,,,,,,,,,,,,,,,,,,,,,,,,,,,,,,,,,,,,,,,,,,,,,,,,,
,,,,,,,61744ea309ea03a24ac76ed1@email.prolific.co,32,2023-07-20_21h15.18.900,templeton2A_SD_practice,2020.2.10,Win32,60,,,,,,,,,,,,,,,,,,,,,,,4.9378,5.31521293,,,,,,,,,,,,,,,,,,,,,,,,,,,,,,,,,,,,,,,,,,,,,,,,,,,,,,,,,,,,,,,,,,,,,,,,,,,,,,,,,,,,,,,,,,,
,,,,,,,61744ea309ea03a24ac76ed1@email.prolific.co,32,2023-07-20_21h15.18.900,templeton2A_SD_practice,2020.2.10,Win32,60,,,,,,,,,,,,,,,,,,,,,,,4.9544,5.31521293,,,,,,,,,,,,,,,,,,,,,,,,,,,,,,,,,,,,,,,,,,,,,,,,,,,,,,,,,,,,,,,,,,,,,,,,,,,,,,,,,,,,,,,,,,,
,,,,,,,61744ea309ea03a24ac76ed1@email.prolific.co,32,2023-07-20_21h15.18.900,templeton2A_SD_practice,2020.2.10,Win32,60,,,,,,,,,,,,,,,,,,,,,,,4.971,5.31521293,,,,,,,,,,,,,,,,,,,,,,,,,,,,,,,,,,,,,,,,,,,,,,,,,,,,,,,,,,,,,,,,,,,,,,,,,,,,,,,,,,,,,,,,,,,
,,,,,,,61744ea309ea03a24ac76ed1@email.prolific.co,32,2023-07-20_21h15.18.900,templeton2A_SD_practice,2020.2.10,Win32,60,,,,,,,,,,,,,,,,,,,,,,,4.9877,5.31521293,,,,,,,,,,,,,,,,,,,,,,,,,,,,,,,,,,,,,,,,,,,,,,,,,,,,,,,,,,,,,,,,,,,,,,,,,,,,,,,,,,,,,,,,,,,
,,,,,,,61744ea309ea03a24ac76ed1@email.prolific.co,32,2023-07-20_21h15.18.900,templeton2A_SD_practice,2020.2.10,Win32,60,,,,,,,,,,,,,,,,,,,,,,,5.0042,5.31521293,,,,,,,,,,,,,,,,,,,,,,,,,,,,,,,,,,,,,,,,,,,,,,,,,,,,,,,,,,,,,,,,,,,,,,,,,,,,,,,,,,,,,,,,,,,
,,,,,,,61744ea309ea03a24ac76ed1@email.prolific.co,32,2023-07-20_21h15.18.900,templeton2A_SD_practice,2020.2.10,Win32,60,,,,,,,,,,,,,,,,,,,,,,,5.0208,5.31521293,,,,,,,,,,,,,,,,,,,,,,,,,,,,,,,,,,,,,,,,,,,,,,,,,,,,,,,,,,,,,,,,,,,,,,,,,,,,,,,,,,,,,,,,,,,
,,,,,,,61744ea309ea03a24ac76ed1@email.prolific.co,32,2023-07-20_21h15.18.900,templeton2A_SD_practice,2020.2.10,Win32,60,,,,,,,,,,,,,,,,,,,,,,,5.0377,5.31521293,,,,,,,,,,,,,,,,,,,,,,,,,,,,,,,,,,,,,,,,,,,,,,,,,,,,,,,,,,,,,,,,,,,,,,,,,,,,,,,,,,,,,,,,,,,
,,,,,,,61744ea309ea03a24ac76ed1@email.prolific.co,32,2023-07-20_21h15.18.900,templeton2A_SD_practice,2020.2.10,Win32,60,,,,,,,,,,,,,,,,,,,,,,,5.0544,5.31521293,,,,,,,,,,,,,,,,,,,,,,,,,,,,,,,,,,,,,,,,,,,,,,,,,,,,,,,,,,,,,,,,,,,,,,,,,,,,,,,,,,,,,,,,,,,
,,,,,,,61744ea309ea03a24ac76ed1@email.prolific.co,32,2023-07-20_21h15.18.900,templeton2A_SD_practice,2020.2.10,Win32,60,,,,,,,,,,,,,,,,,,,,,,,5.071,5.31521293,,,,,,,,,,,,,,,,,,,,,,,,,,,,,,,,,,,,,,,,,,,,,,,,,,,,,,,,,,,,,,,,,,,,,,,,,,,,,,,,,,,,,,,,,,,
,,,,,,,61744ea309ea03a24ac76ed1@email.prolific.co,32,2023-07-20_21h15.18.900,templeton2A_SD_practice,2020.2.10,Win32,60,,,,,,,,,,,,,,,,,,,,,,,5.0876,5.31521293,,,,,,,,,,,,,,,,,,,,,,,,,,,,,,,,,,,,,,,,,,,,,,,,,,,,,,,,,,,,,,,,,,,,,,,,,,,,,,,,,,,,,,,,,,,
,,,,,,,61744ea309ea03a24ac76ed1@email.prolific.co,32,2023-07-20_21h15.18.900,templeton2A_SD_practice,2020.2.10,Win32,60,,,,,,,,,,,,,,,,,,,,,,,5.1041,5.31521293,,,,,,,,,,,,,,,,,,,,,,,,,,,,,,,,,,,,,,,,,,,,,,,,,,,,,,,,,,,,,,,,,,,,,,,,,,,,,,,,,,,,,,,,,,,
,,,,,,,61744ea309ea03a24ac76ed1@email.prolific.co,32,2023-07-20_21h15.18.900,templeton2A_SD_practice,2020.2.10,Win32,60,,,,,,,,,,,,,,,,,,,,,,,5.1209,5.31521293,,,,,,,,,,,,,,,,,,,,,,,,,,,,,,,,,,,,,,,,,,,,,,,,,,,,,,,,,,,,,,,,,,,,,,,,,,,,,,,,,,,,,,,,,,,
,,,,,,,61744ea309ea03a24ac76ed1@email.prolific.co,32,2023-07-20_21h15.18.900,templeton2A_SD_practice,2020.2.10,Win32,60,,,,,,,,,,,,,,,,,,,,,,,5.1376,5.31521293,,,,,,,,,,,,,,,,,,,,,,,,,,,,,,,,,,,,,,,,,,,,,,,,,,,,,,,,,,,,,,,,,,,,,,,,,,,,,,,,,,,,,,,,,,,
,,,,,,,61744ea309ea03a24ac76ed1@email.prolific.co,32,2023-07-20_21h15.18.900,templeton2A_SD_practice,2020.2.10,Win32,60,,,,,,,,,,,,,,,,,,,,,,,5.1542,5.31521293,,,,,,,,,,,,,,,,,,,,,,,,,,,,,,,,,,,,,,,,,,,,,,,,,,,,,,,,,,,,,,,,,,,,,,,,,,,,,,,,,,,,,,,,,,,
,,,,,,,61744ea309ea03a24ac76ed1@email.prolific.co,32,2023-07-20_21h15.18.900,templeton2A_SD_practice,2020.2.10,Win32,60,,,,,,,,,,,,,,,,,,,,,,,5.1716,5.31521293,,,,,,,,,,,,,,,,,,,,,,,,,,,,,,,,,,,,,,,,,,,,,,,,,,,,,,,,,,,,,,,,,,,,,,,,,,,,,,,,,,,,,,,,,,,
,,,,,,,61744ea309ea03a24ac76ed1@email.prolific.co,32,2023-07-20_21h15.18.900,templeton2A_SD_practice,2020.2.10,Win32,60,,,,,,,,,,,,,,,,,,,,,,,5.1885,5.31521293,,,,,,,,,,,,,,,,,,,,,,,,,,,,,,,,,,,,,,,,,,,,,,,,,,,,,,,,,,,,,,,,,,,,,,,,,,,,,,,,,,,,,,,,,,,
,,,,,,,61744ea309ea03a24ac76ed1@email.prolific.co,32,2023-07-20_21h15.18.900,templeton2A_SD_practice,2020.2.10,Win32,60,,,,,,,,,,,,,,,,,,,,,,,5.2043,5.31521293,,,,,,,,,,,,,,,,,,,,,,,,,,,,,,,,,,,,,,,,,,,,,,,,,,,,,,,,,,,,,,,,,,,,,,,,,,,,,,,,,,,,,,,,,,,
,,,,,,,61744ea309ea03a24ac76ed1@email.prolific.co,32,2023-07-20_21h15.18.900,templeton2A_SD_practice,2020.2.10,Win32,60,,,,,,,,,,,,,,,,,,,,,,,5.2209,5.31521293,,,,,,,,,,,,,,,,,,,,,,,,,,,,,,,,,,,,,,,,,,,,,,,,,,,,,,,,,,,,,,,,,,,,,,,,,,,,,,,,,,,,,,,,,,,
,,,,,,,61744ea309ea03a24ac76ed1@email.prolific.co,32,2023-07-20_21h15.18.900,templeton2A_SD_practice,2020.2.10,Win32,60,,,,,,,,,,,,,,,,,,,,,,,5.2377,5.31521293,,,,,,,,,,,,,,,,,,,,,,,,,,,,,,,,,,,,,,,,,,,,,,,,,,,,,,,,,,,,,,,,,,,,,,,,,,,,,,,,,,,,,,,,,,,
,,,,,,,61744ea309ea03a24ac76ed1@email.prolific.co,32,2023-07-20_21h15.18.900,templeton2A_SD_practice,2020.2.10,Win32,60,,,,,,,,,,,,,,,,,,,,,,,5.2542,5.31521293,,,,,,,,,,,,,,,,,,,,,,,,,,,,,,,,,,,,,,,,,,,,,,,,,,,,,,,,,,,,,,,,,,,,,,,,,,,,,,,,,,,,,,,,,,,
,,,,,,,61744ea309ea03a24ac76ed1@email.prolific.co,32,2023-07-20_21h15.18.900,templeton2A_SD_practice,2020.2.10,Win32,60,,,,,,,,,,,,,,,,,,,,,,,5.2708,5.31521293,,,,,,,,,,,,,,,,,,,,,,,,,,,,,,,,,,,,,,,,,,,,,,,,,,,,,,,,,,,,,,,,,,,,,,,,,,,,,,,,,,,,,,,,,,,
,,,,,,,61744ea309ea03a24ac76ed1@email.prolific.co,32,2023-07-20_21h15.18.900,templeton2A_SD_practice,2020.2.10,Win32,60,,,,,,,,,,,,,,,,,,,,,,,5.2876,5.31521293,,,,,,,,,,,,,,,,,,,,,,,,,,,,,,,,,,,,,,,,,,,,,,,,,,,,,,,,,,,,,,,,,,,,,,,,,,,,,,,,,,,,,,,,,,,
,,,,,,,61744ea309ea03a24ac76ed1@email.prolific.co,32,2023-07-20_21h15.18.900,templeton2A_SD_practice,2020.2.10,Win32,60,,,,,,,,,,,,,,,,,,,,,,,5.3042,5.31521293,,,,,,,,,,,,,,,,,,,,,,,,,,,,,,,,,,,,,,,,,,,,,,,,,,,,,,,,,,,,,,,,,,,,,,,,,,,,,,,,,,,,,,,,,,,
,,,,,,,61744ea309ea03a24ac76ed1@email.prolific.co,32,2023-07-20_21h15.18.900,templeton2A_SD_practice,2020.2.10,Win32,60,,,,,,,,,,,,,,,,,,,,,,,5.3208,5.31521293,,,,,,,,,,,,,,,,,,,,,,,,,,,,,,,,,,,,,,,,,,,,,,,,,,,,,,,,,,,,,,,,,,,,,,,,,,,,,,,,,,,,,,,,,,,
,,,,,,,61744ea309ea03a24ac76ed1@email.prolific.co,32,2023-07-20_21h15.18.900,templeton2A_SD_practice,2020.2.10,Win32,60,,,,,,,,,,,,,,,,,,,,,,,5.3372,5.31521293,,,,,,,,,,,,,,,,,,,,,,,,,,,,,,,,,,,,,,,,,,,,,,,,,,,,,,,,,,,,,,,,,,,,,,,,,,,,,,,,,,,,,,,,,,,
,,,,,,,61744ea309ea03a24ac76ed1@email.prolific.co,32,2023-07-20_21h15.18.900,templeton2A_SD_practice,2020.2.10,Win32,60,,,,,,,,,,,,,,,,,,,,,,,5.3543,5.31521293,,,,,,,,,,,,,,,,,,,,,,,,,,,,,,,,,,,,,,,,,,,,,,,,,,,,,,,,,,,,,,,,,,,,,,,,,,,,,,,,,,,,,,,,,,,
,,,,,,,61744ea309ea03a24ac76ed1@email.prolific.co,32,2023-07-20_21h15.18.900,templeton2A_SD_practice,2020.2.10,Win32,60,,,,,,,,,,,,,,,,,,,,,,,5.3708,5.31521293,,,,,,,,,,,,,,,,,,,,,,,,,,,,,,,,,,,,,,,,,,,,,,,,,,,,,,,,,,,,,,,,,,,,,,,,,,,,,,,,,,,,,,,,,,,
,,,,,,,61744ea309ea03a24ac76ed1@email.prolific.co,32,2023-07-20_21h15.18.900,templeton2A_SD_practice,2020.2.10,Win32,60,,,,,,,,,,,,,,,,,,,,,,,5.3874,5.31521293,,,,,,,,,,,,,,,,,,,,,,,,,,,,,,,,,,,,,,,,,,,,,,,,,,,,,,,,,,,,,,,,,,,,,,,,,,,,,,,,,,,,,,,,,,,
,,,,,,,61744ea309ea03a24ac76ed1@email.prolific.co,32,2023-07-20_21h15.18.900,templeton2A_SD_practice,2020.2.10,Win32,60,,,,,,,,,,,,,,,,,,,,,,,5.4041,5.31521293,,,,,,,,,,,,,,,,,,,,,,,,,,,,,,,,,,,,,,,,,,,,,,,,,,,,,,,,,,,,,,,,,,,,,,,,,,,,,,,,,,,,,,,,,,,
,,,,,,,61744ea309ea03a24ac76ed1@email.prolific.co,32,2023-07-20_21h15.18.900,templeton2A_SD_practice,2020.2.10,Win32,60,,,,,,,,,,,,,,,,,,,,,,,5.4207,5.31521293,,,,,,,,,,,,,,,,,,,,,,,,,,,,,,,,,,,,,,,,,,,,,,,,,,,,,,,,,,,,,,,,,,,,,,,,,,,,,,,,,,,,,,,,,,,
,,,,,,,61744ea309ea03a24ac76ed1@email.prolific.co,32,2023-07-20_21h15.18.900,templeton2A_SD_practice,2020.2.10,Win32,60,,,,,,,,,,,,,,,,,,,,,,,5.4374,5.31521293,,,,,,,,,,,,,,,,,,,,,,,,,,,,,,,,,,,,,,,,,,,,,,,,,,,,,,,,,,,,,,,,,,,,,,,,,,,,,,,,,,,,,,,,,,,
,,,,,,,61744ea309ea03a24ac76ed1@email.prolific.co,32,2023-07-20_21h15.18.900,templeton2A_SD_practice,2020.2.10,Win32,60,,,,,,,,,,,,,,,,,,,,,,,5.454,5.31521293,,,,,,,,,,,,,,,,,,,,,,,,,,,,,,,,,,,,,,,,,,,,,,,,,,,,,,,,,,,,,,,,,,,,,,,,,,,,,,,,,,,,,,,,,,,
,,,,,,,61744ea309ea03a24ac76ed1@email.prolific.co,32,2023-07-20_21h15.18.900,templeton2A_SD_practice,2020.2.10,Win32,60,,,,,,,,,,,,,,,,,,,,,,,5.4706,5.31521293,,,,,,,,,,,,,,,,,,,,,,,,,,,,,,,,,,,,,,,,,,,,,,,,,,,,,,,,,,,,,,,,,,,,,,,,,,,,,,,,,,,,,,,,,,,
,,,,,,,61744ea309ea03a24ac76ed1@email.prolific.co,32,2023-07-20_21h15.18.900,templeton2A_SD_practice,2020.2.10,Win32,60,,,,,,,,,,,,,,,,,,,,,,,5.4876,5.31521293,,,,,,,,,,,,,,,,,,,,,,,,,,,,,,,,,,,,,,,,,,,,,,,,,,,,,,,,,,,,,,,,,,,,,,,,,,,,,,,,,,,,,,,,,,,
,,,,,,,61744ea309ea03a24ac76ed1@email.prolific.co,32,2023-07-20_21h15.18.900,templeton2A_SD_practice,2020.2.10,Win32,60,,,,,,,,,,,,,,,,,,,,,,,5.504,5.31521293,,,,,,,,,,,,,,,,,,,,,,,,,,,,,,,,,,,,,,,,,,,,,,,,,,,,,,,,,,,,,,,,,,,,,,,,,,,,,,,,,,,,,,,,,,,
,,,,,,,61744ea309ea03a24ac76ed1@email.prolific.co,32,2023-07-20_21h15.18.900,templeton2A_SD_practice,2020.2.10,Win32,60,,,,,,,,,,,,,,,,,,,,,,,5.5206,5.31521293,,,,,,,,,,,,,,,,,,,,,,,,,,,,,,,,,,,,,,,,,,,,,,,,,,,,,,,,,,,,,,,,,,,,,,,,,,,,,,,,,,,,,,,,,,,
,,,,,,,61744ea309ea03a24ac76ed1@email.prolific.co,32,2023-07-20_21h15.18.900,templeton2A_SD_practice,2020.2.10,Win32,60,,,,,,,,,,,,,,,,,,,,,,,5.5372,5.31521293,,,,,,,,,,,,,,,,,,,,,,,,,,,,,,,,,,,,,,,,,,,,,,,,,,,,,,,,,,,,,,,,,,,,,,,,,,,,,,,,,,,,,,,,,,,
,,,,,,,61744ea309ea03a24ac76ed1@email.prolific.co,32,2023-07-20_21h15.18.900,templeton2A_SD_practice,2020.2.10,Win32,60,,,,,,,,,,,,,,,,,,,,,,,5.5538,5.31521293,,,,,,,,,,,,,,,,,,,,,,,,,,,,,,,,,,,,,,,,,,,,,,,,,,,,,,,,,,,,,,,,,,,,,,,,,,,,,,,,,,,,,,,,,,,
,,,,,,,61744ea309ea03a24ac76ed1@email.prolific.co,32,2023-07-20_21h15.18.900,templeton2A_SD_practice,2020.2.10,Win32,60,,,,,,,,,,,,,,,,,,,,,,,5.5706,5.31521293,,,,,,,,,,,,,,,,,,,,,,,,,,,,,,,,,,,,,,,,,,,,,,,,,,,,,,,,,,,,,,,,,,,,,,,,,,,,,,,,,,,,,,,,,,,
